time	temperature	resistance
0	35.6875	6288.867
1	35.75	6282.3936
2	35.875	6179.4872
3	36.0	6211.505
4	36.0625	6185.879
5	36.125	6134.872
6	36.25	6173.096
7	36.375	6096.8268
8	36.4375	6147.5932
9	36.5625	6021.27
10	36.625	6046.376
11	36.75	6027.538
12	36.8125	6002.493
13	36.9375	6002.493
14	37.0	5983.37
15	37.0625	5964.677
16	37.1875	5946.0312
17	37.25	5958.457
18	37.375	5915.049
19	37.4375	5908.8696
20	37.5625	5847.3184
21	37.625	5816.7228
22	37.75	5890.3536
23	37.8125	5822.834
24	37.9375	5792.3276
26	38.0	5743.7668
27	38.125	5761.9424
28	38.1875	5743.7668
29	38.25	5774.083
30	38.375	5695.504
31	38.4375	5629.6216
32	38.5625	5701.5196
33	38.625	5635.5892
34	38.6875	5623.66
35	38.875	5635.5892
36	38.9375	5558.381
37	39.0	5546.5676
38	39.125	5558.381
39	39.1875	5528.8856
40	39.25	5446.8964
41	39.3125	5441.0712
42	39.4375	5528.8856
44	39.5	5400.433
45	39.5625	5388.863
46	39.625	5446.8964
47	39.6875	5417.8228
48	39.8125	5406.2256
49	39.8125	5308.338
50	39.9375	5388.863
51	40.0625	5308.338
52	40.125	5394.6424
53	40.1875	5262.7048
54	40.25	5279.7868
55	40.3125	5308.338
56	40.375	5217.34
57	40.4375	5262.7048
58	40.5	5279.7868
59	40.5625	5206.0424
61	40.625	5206.0424
62	40.625	5133.01
63	40.75	5172.2476
64	40.8125	5144.1976
65	40.8125	5099.533
66	40.875	5133.01
67	40.9375	5155.4052
68	41.0625	5138.5984
69	41.125	5110.6776
70	41.125	5049.605
71	41.1875	5066.2076
72	41.25	5082.8556
73	41.3125	5066.2076
74	41.375	5044.0748
75	41.375	5038.551
77	41.4375	5055.136
78	41.5	4994.5084
79	41.5625	4994.5084
80	41.5625	4994.5084
81	41.625	4967.1144
82	41.6875	4972.584
83	41.75	4934.3716
84	41.75	4896.3508
85	41.8125	4978.0596
86	41.875	4934.3716
87	41.9375	4912.618
88	41.9375	4885.5244
89	42.0	4890.9364
90	42.0	4826.254
91	42.0625	4799.4672
93	42.125	4794.124
94	42.125	4794.124
95	42.1875	4794.124
96	42.25	4794.124
97	42.25	4794.124
98	42.3125	4799.4672
99	42.3125	4794.124
100	42.4375	4746.1856
101	42.4375	4751.4976
102	42.5	4815.528
103	42.5	4810.1716
104	42.5	4688.0196
105	42.5625	4767.452
106	42.5625	4719.69
107	42.625	4762.131
109	42.625	4719.69
110	42.6875	4693.289
111	42.75	4709.115
112	42.75	4724.982
113	42.75	4666.9824
114	42.8125	4666.9824
115	42.8125	4688.0196
116	42.875	4609.4356
117	42.875	4656.4816
118	42.9375	4635.537
119	42.9375	4666.9824
120	43.0	4661.729
121	43.0	4625.085
122	43.0625	4614.6476
123	43.0625	4614.6476
125	43.0625	4619.865
126	43.125	4635.537
127	43.125	4578.2384
128	43.125	4604.2248
129	43.1875	4625.085
130	43.1875	4578.2384
131	43.25	4567.867
132	43.25	4552.3376
133	43.3125	4547.17
134	43.3125	4526.212
135	43.3125	4536.523
136	43.3125	4526.212
137	43.375	4536.523
139	43.375	4474.8756
140	43.375	4521.061
141	43.4375	4521.061
142	43.4375	4536.523
143	43.4375	4449.3432
144	43.5	4485.1124
145	43.5	4485.1124
146	43.5	4459.547
147	43.5625	4500.4984
148	43.5625	4449.3432
149	43.5625	4479.995
150	43.5625	4479.995
151	43.625	4413.75
152	43.625	4459.547
154	43.625	4464.6532
155	43.625	4439.158
156	43.625	4485.1124
157	43.6875	4444.25
158	43.6875	4373.2876
159	43.6875	4403.613
160	43.6875	4449.3432
161	43.75	4403.613
162	43.75	4398.551
163	43.75	4398.551
164	43.75	4388.4364
165	43.8125	4398.551
166	43.8125	4373.2876
168	43.8125	4403.613
169	43.8125	4368.2436
170	43.8125	4378.3324
171	43.875	4373.2876
172	43.875	4313.0148
173	43.875	4358.17
174	43.875	4368.2436
175	43.875	4318.019
176	43.9375	4338.067
177	43.9375	4353.1396
178	43.9375	4318.019
179	43.9375	4363.206
180	43.9375	4368.2436
182	43.9375	4378.3324
183	43.9375	4353.1396
184	44.0	4338.067
185	44.0	4298.0232
186	44.0	4353.1396
187	44.0	4298.0232
188	44.0	4313.0148
189	44.0	4323.0252
190	44.0	4338.067
191	44.0625	4293.038
192	44.0	4313.0148
193	44.0625	4288.0504
194	44.0625	4318.019
196	44.0625	4303.019
197	44.0625	4323.0252
198	44.0625	4258.2076
199	44.0625	4283.068
200	44.0625	4298.0232
201	44.125	4218.612
202	44.125	4258.2076
203	44.125	4253.248
204	44.125	4293.038
205	44.125	4268.14
206	44.125	4298.0232
207	44.125	4283.068
208	44.125	4303.019
210	44.125	4298.0232
211	44.125	4233.435
212	44.125	4268.14
213	44.125	4218.612
214	44.125	4258.2076
215	44.1875	4258.2076
216	44.1875	4278.0876
217	44.1875	4273.113
218	44.1875	4258.2076
219	44.1875	4248.286
220	44.1875	4248.286
221	44.1875	4253.248
222	44.1875	4293.038
223	44.1875	4253.248
225	44.1875	4253.248
226	44.1875	4253.248
227	44.25	4218.612
228	44.25	4179.233
229	44.25	4243.334
230	44.25	4233.435
231	44.25	4228.4884
232	44.25	4198.8964
233	44.25	4233.435
234	44.25	4228.4884
235	44.25	4213.678
236	44.25	4238.384
237	44.25	4238.384
238	44.25	4258.2076
239	44.25	4248.286
240	44.25	4198.8964
242	44.25	4208.7468
243	44.25	4218.612
244	44.25	4258.2076
245	44.25	4218.612
246	44.25	4189.057
247	44.25	4233.435
248	44.25	4208.7468
249	44.25	4218.612
250	44.25	4213.678
251	44.3125	4154.7332
252	44.25	4198.8964
253	44.25	4174.3256
254	44.25	4203.8204
255	44.25	4154.7332
256	44.25	4193.9736
257	44.25	4149.8432
258	44.3125	4135.1944
260	44.25	4208.7468
261	44.25	4198.8964
262	44.25	4179.233
263	44.25	4203.8204
264	44.25	4203.8204
265	44.25	4203.8204
266	44.3125	4218.612
267	44.3125	4174.3256
268	44.25	4174.3256
269	44.25	4213.678
270	44.25	4193.9736
271	44.25	4140.075
272	44.3125	4169.424
273	44.25	4179.233
274	44.25	4203.8204
275	44.25	4198.8964
277	44.25	4174.3256
278	44.25	4223.5476
279	44.25	4140.075
280	44.25	4193.9736
281	44.25	4203.8204
282	44.25	4198.8964
283	44.25	4223.5476
284	44.25	4198.8964
285	44.25	4198.8964
286	44.25	4125.4452
287	44.25	4179.233
288	44.25	4203.8204
289	44.25	4179.233
290	44.25	4169.424
291	44.25	4169.424
293	44.25	4184.146
294	44.25	4208.7468
295	44.25	4233.435
296	44.25	4203.8204
297	44.25	4208.7468
298	44.25	4140.075
299	44.25	4179.233
300	44.25	4193.9736
301	44.25	4174.3256
302	44.25	4130.319
303	44.25	4169.424
304	44.25	4120.5736
305	44.25	4189.057
306	44.1875	4164.524
307	44.1875	4189.057
309	44.1875	4125.4452
310	44.1875	4213.678
311	44.1875	4169.424
312	44.1875	4179.233
313	44.1875	4179.233
314	44.1875	4174.3256
315	44.1875	4169.424
316	44.1875	4193.9736
317	44.1875	4179.233
318	44.1875	4174.3256
319	44.1875	4208.7468
320	44.1875	4198.8964
321	44.1875	4208.7468
322	44.125	4169.424
323	44.125	4223.5476
325	44.125	4169.424
326	44.125	4149.8432
327	44.125	4154.7332
328	44.125	4198.8964
329	44.125	4169.424
330	44.125	4213.678
331	44.125	4115.7076
332	44.125	4174.3256
333	44.125	4159.626
334	44.125	4149.8432
335	44.125	4203.8204
336	44.125	4203.8204
337	44.125	4149.8432
338	44.125	4189.057
339	44.125	4149.8432
341	44.125	4198.8964
342	44.125	4179.233
343	44.0625	4179.233
344	44.0625	4169.424
345	44.0625	4154.7332
346	44.0625	4228.4884
347	44.0625	4193.9736
348	44.0625	4208.7468
349	44.0625	4208.7468
350	44.0625	4135.1944
351	44.0625	4179.233
352	44.0625	4193.9736
353	44.0625	4193.9736
354	44.0625	4174.3256
356	44.0625	4189.057
357	44.0625	4203.8204
358	44.0625	4233.435
359	44.0	4189.057
360	44.0	4159.626
361	44.0	4193.9736
362	44.0	4169.424
363	44.0	4179.233
364	44.0	4164.524
365	44.0	4198.8964
366	44.0	4144.9584
367	44.0	4179.233
368	44.0	4179.233
370	44.0	4193.9736
371	44.0	4140.075
372	44.0	4198.8964
373	44.0	4179.233
374	43.9375	4198.8964
375	44.0	4179.233
376	43.9375	4174.3256
377	43.9375	4213.678
378	43.9375	4140.075
379	43.9375	4189.057
380	43.9375	4140.075
381	43.9375	4135.1944
382	43.9375	4179.233
384	43.9375	4243.334
385	43.9375	4208.7468
386	43.9375	4179.233
387	43.875	4193.9736
388	43.875	4233.435
389	43.9375	4203.8204
390	43.875	4218.612
391	43.875	4179.233
392	43.875	4193.9736
393	43.875	4184.146
394	43.875	4223.5476
395	43.875	4198.8964
396	43.875	4198.8964
397	43.875	4228.4884
399	43.875	4203.8204
400	43.875	4223.5476
401	43.8125	4174.3256
402	43.8125	4253.248
403	43.8125	4218.612
404	43.8125	4218.612
405	43.8125	4208.7468
406	43.8125	4238.384
407	43.8125	4179.233
408	43.8125	4174.3256
409	43.8125	4218.612
410	43.8125	4218.612
411	43.8125	4228.4884
413	43.8125	4203.8204
414	43.8125	4213.678
415	43.8125	4218.612
416	43.75	4223.5476
417	43.75	4258.2076
418	43.75	4253.248
419	43.75	4268.14
420	43.75	4228.4884
421	43.75	4238.384
422	43.75	4218.612
423	43.75	4233.435
424	43.75	4238.384
425	43.75	4213.678
427	43.75	4233.435
428	43.75	4258.2076
429	43.6875	4223.5476
430	43.6875	4283.068
431	43.6875	4273.113
432	43.6875	4198.8964
433	43.6875	4248.286
434	43.6875	4258.2076
435	43.6875	4218.612
436	43.625	4218.612
437	43.625	4193.9736
438	43.625	4288.0504
439	43.625	4243.334
440	43.625	4233.435
442	43.625	4248.286
443	43.625	4283.068
444	43.625	4258.2076
445	43.625	4253.248
446	43.625	4268.14
447	43.625	4258.2076
448	43.625	4288.0504
449	43.625	4253.248
450	43.5625	4179.233
451	43.5625	4218.612
452	43.5625	4243.334
453	43.5625	4273.113
454	43.5625	4243.334
455	43.5625	4278.0876
456	43.5625	4268.14
457	43.5625	4213.678
458	43.5625	4238.384
460	43.5625	4258.2076
461	43.5	4248.286
462	43.5	4253.248
463	43.5	4273.113
464	43.5	4243.334
465	43.5	4258.2076
466	43.5	4258.2076
467	43.5	4298.0232
468	43.5	4298.0232
469	43.5	4293.038
470	43.5	4293.038
471	43.5	4293.038
472	43.5	4313.0148
473	43.5	4248.286
474	43.4375	4258.2076
475	43.4375	4233.435
477	43.4375	4258.2076
478	43.4375	4273.113
479	43.4375	4218.612
480	43.4375	4328.033
481	43.4375	4268.14
482	43.4375	4328.033
483	43.4375	4298.0232
484	43.4375	4298.0232
485	43.375	4218.612
486	43.375	4283.068
487	43.375	4283.068
488	43.375	4233.435
489	43.375	4283.068
490	43.375	4238.384
491	43.375	4298.0232
492	43.375	4283.068
494	43.375	4303.019
495	43.375	4233.435
496	43.3125	4323.0252
497	43.3125	4288.0504
498	43.3125	4283.068
499	43.3125	4288.0504
500	43.3125	4298.0232
501	43.3125	4328.033
502	43.3125	4308.016
503	43.3125	4248.286
504	43.3125	4303.019
505	43.3125	4338.067
506	43.3125	4313.0148
507	43.3125	4298.0232
508	43.3125	4333.0512
509	43.25	4318.019
511	43.25	4303.019
512	43.25	4348.111
513	43.25	4333.0512
514	43.25	4333.0512
515	43.25	4333.0512
516	43.25	4358.17
517	43.25	4328.033
518	43.25	4273.113
519	43.25	4358.17
520	43.25	4333.0512
521	43.1875	4273.113
522	43.1875	4328.033
523	43.1875	4258.2076
525	43.1875	4258.2076
526	43.1875	4258.2076
527	43.1875	4328.033
528	43.1875	4318.019
529	43.1875	4328.033
530	43.125	4313.0148
531	43.125	4378.3324
532	43.125	4333.0512
533	43.125	4323.0252
534	43.125	4358.17
535	43.125	4378.3324
536	43.125	4338.067
537	43.125	4363.206
538	43.125	4333.0512
539	43.125	4348.111
541	43.0625	4333.0512
542	43.0625	4368.2436
543	43.0625	4338.067
544	43.0625	4363.206
545	43.0625	4358.17
546	43.0625	4358.17
547	43.0625	4368.2436
548	43.0625	4338.067
549	43.0625	4368.2436
550	43.0625	4368.2436
551	43.0625	4373.2876
552	43.0	4363.206
553	43.0	4378.3324
554	43.0	4373.2876
555	43.0	4378.3324
557	43.0	4328.033
558	43.0	4358.17
559	43.0	4378.3324
560	43.0	4353.1396
561	43.0	4378.3324
562	43.0	4393.4908
563	43.0	4393.4908
564	42.9375	4348.111
565	42.9375	4373.2876
566	42.9375	4403.613
567	42.9375	4388.4364
568	42.9375	4378.3324
569	42.9375	4393.4908
570	42.9375	4398.551
572	42.9375	4368.2436
573	42.9375	4368.2436
574	42.9375	4408.6808
575	42.875	4368.2436
576	42.875	4398.551
577	42.875	4358.17
578	42.875	4353.1396
579	42.875	4368.2436
580	42.875	4388.4364
581	42.875	4428.9844
582	42.875	4368.2436
583	42.875	4403.613
584	42.8125	4373.2876
585	42.8125	4408.6808
587	42.8125	4383.384
588	42.8125	4338.067
589	42.8125	4428.9844
590	42.8125	4388.4364
591	42.8125	4378.3324
592	42.8125	4398.551
593	42.8125	4373.2876
594	42.8125	4403.613
595	42.8125	4353.1396
596	42.8125	4418.8248
597	42.75	4393.4908
598	42.75	4403.613
599	42.75	4363.206
601	42.75	4413.75
602	42.75	4378.3324
603	42.75	4393.4908
604	42.75	4353.1396
605	42.75	4403.613
606	42.75	4398.551
607	42.75	4444.25
608	42.6875	4388.4364
609	42.6875	4418.8248
610	42.6875	4428.9844
611	42.6875	4408.6808
612	42.6875	4363.206
614	42.6875	4413.75
615	42.6875	4439.158
616	42.625	4403.613
617	42.625	4459.547
618	42.625	4449.3432
619	42.625	4418.8248
620	42.625	4454.442
621	42.625	4459.547
622	42.625	4418.8248
623	42.625	4388.4364
624	42.625	4459.547
625	42.625	4454.442
626	42.625	4490.2392
628	42.5625	4413.75
629	42.625	4418.8248
630	42.5625	4474.8756
631	42.5625	4449.3432
632	42.5625	4485.1124
633	42.5625	4454.442
634	42.5625	4434.0684
635	42.5625	4459.547
636	42.5625	4474.8756
637	42.5625	4444.25
638	42.5625	4393.4908
639	42.5625	4459.547
640	42.5625	4413.75
642	42.5	4474.8756
643	42.5	4418.8248
644	42.5	4510.7724
645	42.5	4469.7616
646	42.5	4444.25
647	42.5	4459.547
648	42.5	4403.613
649	42.5	4444.25
650	42.5	4444.25
651	42.5	4474.8756
652	42.5	4459.547
653	42.5	4490.2392
654	42.4375	4490.2392
655	42.4375	4485.1124
656	42.4375	4510.7724
658	42.4375	4459.547
659	42.4375	4479.995
660	42.4375	4495.368
661	42.4375	4500.4984
662	42.4375	4485.1124
663	42.375	4474.8756
664	42.4375	4490.2392
665	42.4375	4485.1124
666	42.375	4485.1124
667	42.375	4444.25
668	42.375	4495.368
669	42.375	4474.8756
670	42.375	4500.4984
671	42.375	4490.2392
672	42.375	4439.158
673	42.375	4500.4984
674	42.375	4541.683
676	42.375	4541.683
677	42.3125	4439.158
678	42.3125	4510.7724
679	42.3125	4474.8756
680	42.3125	4500.4984
681	42.3125	4500.4984
682	42.3125	4500.4984
683	42.3125	4479.995
684	42.3125	4495.368
685	42.3125	4495.368
686	42.3125	4449.3432
687	42.3125	4500.4984
688	42.25	4490.2392
689	42.25	4490.2392
690	42.25	4500.4984
692	42.25	4521.061
693	42.25	4521.061
694	42.25	4500.4984
695	42.25	4454.442
696	42.25	4567.867
697	42.25	4547.17
698	42.25	4567.867
699	42.1875	4531.3648
700	42.1875	4515.916
701	42.1875	4521.061
702	42.1875	4454.442
703	42.1875	4541.683
704	42.1875	4531.3648
705	42.1875	4547.17
706	42.1875	4521.061
707	42.125	4521.061
708	42.125	4515.916
710	42.125	4510.7724
711	42.125	4526.212
712	42.125	4521.061
713	42.125	4474.8756
714	42.125	4541.683
715	42.125	4526.212
716	42.125	4526.212
717	42.125	4578.2384
718	42.125	4526.212
719	42.0625	4567.867
720	42.0625	4479.995
721	42.0625	4541.683
722	42.0625	4552.3376
723	42.0625	4490.2392
724	42.0625	4490.2392
726	42.0625	4557.511
727	42.0625	4526.212
728	42.0625	4521.061
729	42.0625	4541.683
730	42.0625	4552.3376
731	42.0625	4541.683
732	42.0625	4547.17
733	42.0	4573.05
734	42.0	4531.3648
735	42.0	4552.3376
736	42.0	4557.511
737	42.0	4521.061
738	42.0	4573.05
739	42.0	4573.05
740	42.0	4531.3648
742	42.0	4578.2384
743	42.0	4573.05
744	41.9375	4567.867
745	41.9375	4500.4984
746	41.9375	4573.05
747	41.9375	4567.867
748	41.9375	4604.2248
749	41.9375	4531.3648
750	41.9375	4573.05
751	41.9375	4536.523
752	41.9375	4573.05
753	41.9375	4567.867
754	41.875	4573.05
755	41.875	4526.212
757	41.875	4573.05
758	41.875	4567.867
759	41.875	4609.4356
760	41.875	4593.817
761	41.875	4583.428
762	41.875	4573.05
763	41.8125	4583.428
764	41.8125	4604.2248
765	41.8125	4573.05
766	41.8125	4614.6476
767	41.8125	4573.05
768	41.8125	4614.6476
769	41.8125	4578.2384
770	41.8125	4625.085
771	41.8125	4609.4356
773	41.8125	4619.865
774	41.8125	4578.2384
775	41.75	4609.4356
776	41.75	4593.817
777	41.75	4625.085
778	41.75	4646.004
779	41.75	4609.4356
780	41.75	4614.6476
781	41.75	4614.6476
782	41.75	4635.537
783	41.75	4557.511
784	41.6875	4609.4356
785	41.6875	4599.02
786	41.6875	4604.2248
788	41.6875	4640.7656
789	41.6875	4599.02
790	41.6875	4640.7656
791	41.6875	4625.085
792	41.625	4567.867
793	41.625	4583.428
794	41.625	4604.2248
795	41.625	4635.537
796	41.625	4630.3056
797	41.625	4625.085
798	41.625	4625.085
799	41.625	4619.865
800	41.625	4625.085
801	41.625	4630.3056
803	41.625	4646.004
804	41.5625	4635.537
805	41.5625	4625.085
806	41.5625	4666.9824
807	41.5625	4599.02
808	41.5625	4630.3056
809	41.5625	4635.537
810	41.5625	4666.9824
811	41.5625	4666.9824
812	41.5625	4640.7656
813	41.5625	4640.7656
814	41.5	4635.537
815	41.5	4651.2396
817	41.5	4646.004
818	41.5	4661.729
819	41.5	4619.865
820	41.5	4693.289
821	41.5	4682.751
822	41.5	4656.4816
823	41.5	4682.751
824	41.5	4688.0196
825	41.4375	4698.56
826	41.4375	4640.7656
827	41.4375	4625.085
828	41.4375	4703.837
829	41.4375	4666.9824
831	41.4375	4630.3056
832	41.4375	4656.4816
833	41.4375	4703.837
834	41.4375	4682.751
835	41.4375	4661.729
836	41.4375	4656.4816
837	41.4375	4682.751
838	41.375	4666.9824
839	41.375	4666.9824
840	41.375	4730.275
841	41.375	4698.56
842	41.375	4688.0196
843	41.375	4682.751
845	41.375	4688.0196
846	41.375	4666.9824
847	41.3125	4614.6476
848	41.3125	4640.7656
849	41.3125	4740.879
850	41.3125	4646.004
851	41.3125	4709.115
852	41.3125	4703.837
853	41.3125	4688.0196
854	41.3125	4740.879
855	41.3125	4693.289
856	41.3125	4693.289
858	41.3125	4698.56
859	41.25	4724.982
860	41.25	4756.8116
861	41.25	4666.9824
862	41.25	4724.982
863	41.25	4698.56
864	41.25	4703.837
865	41.25	4703.837
866	41.25	4709.115
867	41.25	4730.275
868	41.1875	4719.69
869	41.1875	4719.69
870	41.1875	4709.115
871	41.1875	4735.5736
872	41.1875	4693.289
874	41.1875	4666.9824
875	41.1875	4682.751
876	41.1875	4724.982
877	41.1875	4746.1856
878	41.125	4719.69
879	41.1875	4730.275
880	41.125	4788.782
881	41.125	4724.982
882	41.125	4740.879
883	41.125	4693.289
884	41.125	4735.5736
885	41.125	4804.8164
886	41.125	4756.8116
887	41.125	4762.131
888	41.125	4730.275
889	41.125	4719.69
890	41.125	4740.879
892	41.0625	4751.4976
893	41.0625	4746.1856
894	41.0625	4783.442
895	41.0625	4783.442
896	41.0625	4693.289
897	41.0625	4762.131
898	41.0625	4794.124
899	41.0625	4740.879
900	41.0625	4772.7792
901	41.0625	4730.275
902	41.0625	4778.1076
903	41.0	4730.275
904	41.0	4772.7792
905	41.0	4772.7792
906	41.0	4762.131
907	41.0	4751.4976
909	41.0	4772.7792
910	41.0	4778.1076
911	41.0	4778.1076
912	41.0	4794.124
913	41.0	4772.7792
914	41.0	4746.1856
915	40.9375	4804.8164
916	40.9375	4767.452
917	40.9375	4767.452
918	40.9375	4724.982
919	40.9375	4751.4976
920	40.9375	4746.1856
921	40.9375	4751.4976
922	40.9375	4783.442
923	40.9375	4794.124
925	40.875	4751.4976
926	40.875	4740.879
927	40.875	4794.124
928	40.875	4778.1076
929	40.875	4778.1076
930	40.875	4815.528
931	40.875	4783.442
932	40.8125	4772.7792
933	40.8125	4783.442
934	40.8125	4815.528
935	40.8125	4804.8164
936	40.8125	4767.452
937	40.8125	4778.1076
938	40.8125	4767.452
939	40.8125	4783.442
941	40.8125	4788.782
942	40.8125	4794.124
943	40.75	4735.5736
944	40.75	4826.254
945	40.75	4810.1716
946	40.75	4820.8852
947	40.75	4788.782
948	40.75	4794.124
949	40.75	4762.131
950	40.75	4810.1716
951	40.75	4804.8164
952	40.6875	4863.9164
953	40.6875	4869.3096
954	40.6875	4810.1716
955	40.6875	4853.1344
957	40.6875	4815.528
958	40.6875	4794.124
959	40.625	4836.9948
960	40.625	4815.528
961	40.625	4836.9948
962	40.625	4831.619
963	40.625	4772.7792
964	40.625	4820.8852
965	40.625	4858.5244
966	40.625	4820.8852
967	40.625	4810.1716
968	40.625	4751.4976
969	40.625	4826.254
970	40.625	4783.442
971	40.5625	4826.254
973	40.5625	4820.8852
974	40.5625	4853.1344
975	40.5625	4907.191
976	40.5625	4863.9164
977	40.5625	4842.3716
978	40.5625	4783.442
979	40.5625	4863.9164
980	40.5625	4847.75
981	40.5	4885.5244
982	40.5	4847.75
983	40.5	4831.619
984	40.5	4847.75
985	40.5	4896.3508
987	40.5	4863.9164
988	40.5	4880.1132
989	40.5	4890.9364
990	40.5	4869.3096
991	40.5	4799.4672
992	40.5	4885.5244
993	40.5	4847.75
994	40.4375	4820.8852
995	40.4375	4858.5244
996	40.4375	4896.3508
997	40.4375	4885.5244
998	40.4375	4912.618
999	40.4375	4869.3096
1000	40.4375	4831.619
1002	40.4375	4815.528
1003	40.4375	4874.713
1004	40.375	4869.3096
1005	40.375	4836.9948
1006	40.375	4896.3508
1007	40.375	4907.191
1008	40.375	4890.9364
1009	40.375	4826.254
1010	40.375	4853.1344
1011	40.375	4923.4852
1012	40.375	4896.3508
1013	40.375	4810.1716
1014	40.375	4901.77
1015	40.3125	4869.3096
1017	40.3125	4858.5244
1018	40.3125	4869.3096
1019	40.3125	4874.713
1020	40.3125	4901.77
1021	40.3125	4831.619
1022	40.3125	4869.3096
1023	40.3125	4869.3096
1024	40.3125	4912.618
1025	40.3125	4918.051
1026	40.25	4880.1132
1027	40.25	4918.051
1028	40.25	4896.3508
1029	40.25	4890.9364
1031	40.25	4923.4852
1032	40.25	4901.77
1033	40.25	4869.3096
1034	40.25	4939.8192
1035	40.25	4939.8192
1036	40.25	4880.1132
1037	40.1875	4923.4852
1038	40.1875	4896.3508
1039	40.1875	4880.1132
1040	40.1875	4923.4852
1041	40.1875	4907.191
1042	40.1875	4912.618
1043	40.1875	4934.3716
1045	40.1875	4912.618
1046	40.125	4901.77
1047	40.1875	4961.6464
1048	40.125	4918.051
1049	40.125	4901.77
1050	40.125	4918.051
1051	40.125	4950.723
1052	40.125	4880.1132
1053	40.125	4939.8192
1054	40.125	4912.618
1055	40.0625	4912.618
1056	40.0625	4869.3096
1057	40.0625	4989.019
1059	40.0625	4956.184
1060	40.0625	4945.268
1061	40.0625	4923.4852
1062	40.0625	4923.4852
1063	40.0625	4945.268
1064	40.0625	4874.713
1065	40.0625	4967.1144
1066	40.0	4918.051
1067	40.0	4907.191
1068	40.0	4923.4852
1069	40.0	4928.9252
1070	40.0	4961.6464
1072	40.0	4880.1132
1073	40.0	4934.3716
1074	40.0	4950.723
1075	40.0	4945.268
1076	40.0	4967.1144
1077	40.0	4967.1144
1078	39.9375	4956.184
1079	39.9375	4972.584
1080	39.9375	4972.584
1081	39.9375	4999.998
1082	39.9375	4967.1144
1083	39.9375	4896.3508
1084	39.9375	4961.6464
1085	39.9375	4978.0596
1086	39.9375	4907.191
1087	39.9375	4983.541
1089	39.875	4999.998
1090	39.875	4967.1144
1091	39.875	5027.5156
1092	39.875	5005.4948
1093	39.875	4961.6464
1094	39.875	4989.019
1095	39.875	4994.5084
1096	39.875	4945.268
1097	39.875	5005.4948
1098	39.875	4923.4852
1099	39.8125	4923.4852
1100	39.875	4994.5084
1101	39.8125	4967.1144
1102	39.8125	4989.019
1103	39.8125	4989.019
1104	39.8125	4972.584
1105	39.8125	4983.541
1107	39.8125	4967.1144
1108	39.8125	4967.1144
1109	39.8125	4989.019
1110	39.8125	4945.268
1111	39.8125	5038.551
1112	39.8125	5038.551
1113	39.75	4994.5084
1114	39.75	5005.4948
1115	39.75	5010.9968
1116	39.75	4978.0596
1117	39.75	5005.4948
1118	39.75	4983.541
1119	39.75	4923.4852
1120	39.75	5033.032
1121	39.75	4994.5084
1122	39.75	4994.5084
1124	39.75	5005.4948
1125	39.75	5027.5156
1126	39.6875	4999.998
1127	39.6875	4999.998
1128	39.6875	5027.5156
1129	39.6875	5033.032
1130	39.6875	4945.268
1131	39.6875	5033.032
1132	39.625	5005.4948
1133	39.625	4961.6464
1134	39.6875	5038.551
1135	39.625	5010.9968
1136	39.625	5005.4948
1137	39.625	5055.136
1138	39.625	4967.1144
1140	39.625	5044.0748
1141	39.625	5038.551
1142	39.625	5033.032
1143	39.625	5005.4948
1144	39.625	5033.032
1145	39.625	5071.7524
1146	39.625	5010.9968
1147	39.625	4983.541
1148	39.5625	5044.0748
1149	39.5625	5010.9968
1150	39.5625	5060.669
1151	39.5625	4983.541
1152	39.5625	5010.9968
1153	39.5625	5022.005
1155	39.5625	5060.669
1156	39.5625	5049.605
1157	39.5625	5082.8556
1158	39.5625	4967.1144
1159	39.5625	5033.032
1160	39.5	5049.605
1161	39.5	5027.5156
1162	39.5	5055.136
1163	39.5	5033.032
1164	39.5	5027.5156
1165	39.5	5055.136
1166	39.5	5049.605
1167	39.5	5038.551
1168	39.4375	5055.136
1169	39.4375	5071.7524
1171	39.4375	5049.605
1172	39.4375	5071.7524
1173	39.375	5071.7524
1174	39.375	5082.8556
1175	39.375	5088.4088
1176	39.375	5049.605
1177	39.3125	5055.136
1178	39.3125	5082.8556
1179	39.3125	5077.303
1180	39.25	5038.551
1181	39.25	5060.669
1182	39.25	5099.533
1183	39.25	5049.605
1184	39.25	5066.2076
1185	39.1875	5077.303
1187	39.1875	5116.2516
1188	39.1875	5088.4088
1189	39.1875	5033.032
1190	39.125	5133.01
1191	39.125	5060.669
1192	39.125	5133.01
1193	39.125	5110.6776
1194	39.125	5127.418
1195	39.0625	5099.533
1196	39.0625	5127.418
1197	39.0625	5093.9728
1198	39.0625	5099.533
1199	39.0625	5133.01
1200	39.0	5060.669
1202	39.0	5155.4052
1203	39.0	5144.1976
1204	39.0	5082.8556
1205	39.0	5133.01
1206	39.0	5161.013
1207	38.9375	5127.418
1208	38.9375	5172.2476
1209	38.9375	5099.533
1210	38.9375	5099.533
1211	38.9375	5172.2476
1212	38.9375	5149.799
1213	38.875	5177.8688
1214	38.875	5177.8688
1215	38.875	5099.533
1217	38.875	5121.8316
1218	38.875	5166.6276
1219	38.875	5206.0424
1220	38.875	5166.6276
1221	38.875	5172.2476
1222	38.8125	5228.6568
1223	38.8125	5217.34
1224	38.8125	5144.1976
1225	38.8125	5222.995
1226	38.8125	5217.34
1227	38.8125	5222.995
1228	38.8125	5177.8688
1230	38.8125	5234.3192
1231	38.75	5206.0424
1232	38.8125	5234.3192
1233	38.75	5222.995
1234	38.75	5217.34
1235	38.75	5262.7048
1236	38.75	5222.995
1237	38.75	5257.0216
1238	38.75	5234.3192
1239	38.75	5251.339
1240	38.75	5228.6568
1241	38.6875	5268.3944
1242	38.6875	5189.125
1244	38.6875	5206.0424
1245	38.6875	5279.7868
1246	38.6875	5217.34
1247	38.6875	5262.7048
1248	38.6875	5206.0424
1249	38.6875	5262.7048
1250	38.625	5257.0216
1251	38.625	5279.7868
1252	38.625	5234.3192
1253	38.625	5228.6568
1254	38.625	5268.3944
1255	38.625	5217.34
1256	38.625	5302.62
1258	38.625	5257.0216
1259	38.625	5279.7868
1260	38.5625	5279.7868
1261	38.5625	5319.791
1262	38.5625	5268.3944
1263	38.5625	5279.7868
1264	38.5625	5268.3944
1265	38.5625	5342.7468
1266	38.5625	5308.338
1267	38.5625	5274.09
1268	38.5	5279.7868
1269	38.5	5348.492
1270	38.5	5296.904
1272	38.5	5302.62
1273	38.5	5262.7048
1274	38.5	5319.791
1275	38.5	5331.259
1276	38.5	5348.492
1277	38.5	5319.791
1278	38.4375	5354.249
1279	38.4375	5262.7048
1280	38.4375	5337.002
1281	38.4375	5314.0616
1282	38.4375	5360.0064
1283	38.4375	5319.791
1284	38.4375	5348.492
1285	38.4375	5371.5356
1286	38.4375	5325.522
1287	38.4375	5337.002
1289	38.375	5348.492
1290	38.375	5354.249
1291	38.375	5383.079
1292	38.375	5274.09
1293	38.375	5360.0064
1294	38.375	5314.0616
1295	38.375	5365.7704
1296	38.3125	5371.5356
1297	38.3125	5348.492
1298	38.3125	5325.522
1299	38.3125	5360.0064
1300	38.3125	5337.002
1301	38.3125	5360.0064
1302	38.3125	5365.7704
1303	38.3125	5325.522
1304	38.3125	5371.5356
1305	38.3125	5360.0064
1307	38.25	5383.079
1308	38.25	5406.2256
1309	38.25	5291.1932
1310	38.25	5337.002
1311	38.25	5360.0064
1312	38.25	5302.62
1313	38.25	5354.249
1314	38.1875	5348.492
1315	38.1875	5388.863
1316	38.1875	5331.259
1317	38.1875	5337.002
1318	38.1875	5296.904
1319	38.125	5406.2256
1320	38.1875	5365.7704
1321	38.125	5383.079
1323	38.125	5354.249
1324	38.125	5371.5356
1325	38.125	5406.2256
1326	38.125	5417.8228
1327	38.125	5412.0232
1328	38.125	5388.863
1329	38.125	5412.0232
1330	38.125	5325.522
1331	38.0625	5388.863
1332	38.0625	5342.7468
1333	38.0625	5365.7704
1334	38.0625	5452.723
1335	38.0625	5394.6424
1336	38.0625	5388.863
1337	38.0625	5412.0232
1339	38.0625	5417.8228
1340	38.0625	5354.249
1341	38.0625	5400.433
1342	38.0625	5417.8228
1343	38.0625	5383.079
1344	38.0	5417.8228
1345	38.0	5417.8228
1346	38.0	5458.5556
1347	38.0	5383.079
1348	38.0	5423.628
1349	38.0	5337.002
1350	38.0	5429.44
1351	38.0	5435.2524
1352	38.0	5388.863
1353	37.9375	5337.002
1354	37.9375	5417.8228
1356	37.9375	5464.394
1357	37.9375	5400.433
1358	37.9375	5394.6424
1359	37.9375	5441.0712
1360	37.9375	5354.249
1361	37.9375	5441.0712
1362	37.875	5394.6424
1363	37.875	5406.2256
1364	37.875	5417.8228
1365	37.875	5476.08
1366	37.875	5417.8228
1367	37.875	5441.0712
1368	37.8125	5417.8228
1369	37.8125	5429.44
1371	37.8125	5429.44
1372	37.8125	5499.5052
1373	37.8125	5487.7804
1374	37.8125	5476.08
1375	37.8125	5394.6424
1376	37.8125	5446.8964
1377	37.8125	5435.2524
1378	37.8125	5388.863
1379	37.8125	5481.927
1380	37.8125	5481.927
1381	37.75	5493.6396
1382	37.8125	5481.927
1383	37.75	5487.7804
1384	37.75	5511.245
1386	37.75	5487.7804
1387	37.75	5458.5556
1388	37.75	5487.7804
1389	37.75	5499.5052
1390	37.75	5487.7804
1391	37.75	5505.372
1392	37.75	5446.8964
1393	37.75	5464.394
1394	37.75	5493.6396
1395	37.6875	5487.7804
1396	37.6875	5493.6396
1397	37.6875	5499.5052
1398	37.6875	5464.394
1399	37.6875	5464.394
1401	37.6875	5476.08
1402	37.6875	5406.2256
1403	37.6875	5464.394
1404	37.625	5505.372
1405	37.625	5481.927
1406	37.625	5552.4684
1407	37.625	5499.5052
1408	37.625	5511.245
1409	37.625	5511.245
1410	37.625	5511.245
1411	37.625	5458.5556
1412	37.5625	5476.08
1413	37.5625	5499.5052
1414	37.5625	5522.999
1416	37.5625	5487.7804
1417	37.5625	5493.6396
1418	37.5625	5487.7804
1419	37.5625	5534.7732
1420	37.5625	5493.6396
1421	37.5625	5511.245
1422	37.5	5481.927
1423	37.5	5511.245
1424	37.5	5534.7732
1425	37.5	5522.999
1426	37.5	5511.245
1427	37.5	5511.245
1428	37.5	5511.245
1429	37.5	5517.119
1431	37.5	5493.6396
1432	37.4375	5528.8856
1433	37.4375	5481.927
1434	37.4375	5505.372
1435	37.4375	5534.7732
1436	37.4375	5505.372
1437	37.4375	5528.8856
1438	37.4375	5522.999
1439	37.4375	5499.5052
1440	37.4375	5511.245
1441	37.4375	5511.245
1442	37.4375	5487.7804
1443	37.375	5540.667
1445	37.4375	5534.7732
1446	37.375	5540.667
1447	37.375	5570.209
1448	37.375	5452.723
1449	37.375	5522.999
1450	37.3125	5511.245
1451	37.3125	5511.245
1452	37.3125	5540.667
1453	37.3125	5540.667
1454	37.3125	5511.245
1455	37.3125	5511.245
1456	37.3125	5499.5052
1457	37.3125	5481.927
1459	37.3125	5511.245
1460	37.25	5511.245
1461	37.25	5558.381
1462	37.25	5528.8856
1463	37.25	5540.667
1464	37.25	5546.5676
1465	37.25	5511.245
1466	37.25	5570.209
1467	37.25	5528.8856
1468	37.25	5552.4684
1469	37.1875	5528.8856
1470	37.1875	5464.394
1472	37.1875	5487.7804
1473	37.1875	5540.667
1474	37.1875	5528.8856
1475	37.1875	5558.381
1476	37.125	5582.052
1477	37.125	5558.381
1478	37.125	5558.381
1479	37.125	5570.209
1480	37.125	5540.667
1481	37.125	5558.381
1482	37.125	5587.9852
1483	37.125	5552.4684
1484	37.0625	5576.13
1485	37.0625	5540.667
1486	37.0625	5576.13
1488	37.0625	5558.381
1489	37.0625	5546.5676
1490	37.0625	5534.7732
1491	37.0	5570.209
1492	37.0	5576.13
1493	37.0	5534.7732
1494	37.0	5558.381
1495	37.0	5558.381
1496	37.0	5558.381
1497	37.0	5552.4684
1498	37.0	5582.052
1499	36.9375	5540.667
1500	36.9375	5576.13
1501	36.9375	5605.8024
1502	36.9375	5587.9852
1503	36.9375	5558.381
1504	36.9375	5599.8556
1506	36.9375	5558.381
1507	36.9375	5629.6216
1508	36.9375	5593.92
1509	36.875	5570.209
1510	36.875	5599.8556
1511	36.875	5587.9852
1512	36.875	5605.8024
1513	36.875	5576.13
1514	36.875	5534.7732
1515	36.8125	5587.9852
1516	36.875	5629.6216
1517	36.8125	5641.5584
1518	36.8125	5593.92
1519	36.8125	5587.9852
1520	36.8125	5617.7048
1521	36.8125	5635.5892
1522	36.75	5635.5892
1524	36.8125	5617.7048
1525	36.8125	5599.8556
1526	36.75	5582.052
1527	36.75	5629.6216
1528	36.75	5582.052
1529	36.75	5617.7048
1530	36.75	5599.8556
1531	36.75	5641.5584
1532	36.75	5587.9852
1533	36.75	5641.5584
1534	36.75	5599.8556
1535	36.75	5683.48
1536	36.6875	5641.5584
1537	36.6875	5599.8556
1539	36.6875	5641.5584
1540	36.6875	5605.8024
1541	36.6875	5635.5892
1542	36.625	5605.8024
1543	36.625	5689.489
1544	36.625	5647.5336
1545	36.625	5629.6216
1546	36.625	5558.381
1547	36.625	5641.5584
1548	36.625	5576.13
1549	36.625	5605.8024
1550	36.625	5558.381
1551	36.625	5653.515
1552	36.5625	5665.4864
1553	36.5625	5653.515
1555	36.5625	5629.6216
1556	36.5625	5653.515
1557	36.5625	5629.6216
1558	36.5625	5665.4864
1559	36.5625	5623.66
1560	36.5	5653.515
1561	36.5	5665.4864
1562	36.5	5635.5892
1563	36.5	5605.8024
1564	36.5	5695.504
1565	36.5	5629.6216
1566	36.5	5665.4864
1567	36.4375	5605.8024
1568	36.4375	5683.48
1569	36.4375	5683.48
1571	36.4375	5629.6216
1572	36.4375	5653.515
1573	36.4375	5653.515
1574	36.4375	5677.4776
1575	36.4375	5641.5584
1576	36.4375	5695.504
1577	36.4375	5701.5196
1578	36.375	5683.48
1579	36.4375	5713.5652
1580	36.375	5605.8024
1581	36.375	5665.4864
1582	36.375	5647.5336
1583	36.375	5701.5196
1584	36.375	5737.717
1585	36.375	5689.489
1587	36.375	5665.4864
1588	36.3125	5713.5652
1589	36.375	5719.595
1590	36.3125	5653.515
1591	36.3125	5689.489
1592	36.3125	5701.5196
1593	36.3125	5713.5652
1594	36.3125	5701.5196
1595	36.3125	5659.4976
1596	36.3125	5671.4816
1597	36.3125	5683.48
1598	36.3125	5677.4776
1599	36.25	5635.5892
1600	36.3125	5749.8224
1602	36.25	5689.489
1603	36.25	5689.489
1604	36.25	5689.489
1605	36.25	5695.504
1606	36.25	5725.631
1607	36.25	5725.631
1608	36.25	5695.504
1609	36.25	5719.595
1610	36.25	5689.489
1611	36.1875	5641.5584
1612	36.1875	5731.6732
1613	36.1875	5725.631
1614	36.1875	5671.4816
1616	36.1875	5737.717
1617	36.1875	5743.7668
1618	36.1875	5737.717
1619	36.1875	5677.4776
1620	36.125	5677.4776
1621	36.125	5737.717
1622	36.125	5713.5652
1623	36.125	5780.16
1624	36.125	5749.8224
1625	36.125	5701.5196
1626	36.125	5707.542
1627	36.125	5695.504
1628	36.125	5725.631
1630	36.125	5653.515
1631	36.125	5731.6732
1632	36.125	5743.7668
1633	36.125	5671.4816
1634	36.125	5725.631
1635	36.0625	5731.6732
1636	36.0625	5719.595
1637	36.0625	5683.48
1638	36.0625	5749.8224
1639	36.0625	5774.083
1640	36.0625	5737.717
1641	36.0625	5701.5196
1642	36.0625	5743.7668
1643	36.0625	5677.4776
1645	36.0625	5725.631
1646	36.0625	5719.595
1647	36.0625	5719.595
1648	36.0625	5695.504
1649	36.0	5774.083
1650	36.0	5749.8224
1651	36.0	5683.48
1652	36.0	5731.6732
1653	36.0	5713.5652
1654	36.0	5749.8224
1655	36.0	5774.083
1656	36.0	5761.9424
1657	36.0	5695.504
1659	36.0	5737.717
1660	36.0	5749.8224
1661	36.0	5689.489
1662	36.0	5792.3276
1663	36.0	5786.243
1664	35.9375	5774.083
1665	35.9375	5774.083
1666	35.9375	5695.504
1667	35.9375	5786.243
1668	35.9375	5798.418
1669	35.9375	5749.8224
1670	35.9375	5798.418
1671	35.9375	5780.16
1673	35.9375	5780.16
1674	35.9375	5701.5196
1675	35.9375	5749.8224
1676	35.9375	5798.418
1677	35.875	5792.3276
1678	35.875	5786.243
1679	35.875	5798.418
1680	35.9375	5792.3276
1681	35.875	5774.083
1682	35.875	5780.16
1683	35.875	5822.834
1684	35.875	5792.3276
1685	35.875	5798.418
1686	35.875	5804.515
1688	35.875	5786.243
1689	35.875	5749.8224
1690	35.875	5798.418
1691	35.875	5822.834
1692	35.875	5835.0636
1693	35.875	5786.243
1694	35.875	5768.012
1695	35.875	5792.3276
1696	35.875	5835.0636
1697	35.875	5816.7228
1698	35.875	5822.834
1699	35.875	5749.8224
1700	35.875	5816.7228
1701	35.875	5798.418
1702	35.875	5822.834
1703	35.875	5816.7228
1705	35.875	5780.16
1706	35.875	5841.1876
1707	35.875	5847.3184
1708	35.875	5847.3184
1709	35.875	5822.834
1710	35.8125	5822.834
1711	35.8125	5822.834
1712	35.8125	5816.7228
1713	35.8125	5792.3276
1714	35.875	5859.5884
1715	35.875	5902.697
1716	35.8125	5884.1944
1717	35.875	5871.884
1718	35.875	5915.049
1719	35.8125	5865.733
1720	35.875	5878.036
1722	35.875	5828.9452
1723	35.875	5871.884
1724	35.875	5890.3536
1725	35.875	5884.1944
1726	35.8125	5871.884
1727	35.875	5921.24
1728	35.875	5878.036
1729	35.875	5939.825
1730	35.875	5878.036
1731	35.875	5878.036
1732	35.8125	5841.1876
1733	35.8125	5871.884
1734	35.8125	5933.626
1735	35.8125	5865.733
1736	35.875	5896.5244
1737	35.875	5890.3536
1739	35.875	5908.8696
1740	35.875	5896.5244
1741	35.8125	5927.427
1742	35.875	5890.3536
1743	35.8125	5908.8696
1744	35.8125	5939.825
1745	35.8125	5946.0312
1746	35.8125	5841.1876
1747	35.8125	5921.24
1748	35.8125	5896.5244
1749	35.8125	5896.5244
1750	35.8125	5927.427
1751	35.8125	5958.457
1752	35.8125	5964.677
1753	35.8125	5995.8508
1755	35.8125	5871.884
1756	35.8125	5927.427
1757	35.8125	5915.049
1758	35.8125	5933.626
1759	35.8125	5977.1304
1760	35.8125	5939.825
1761	35.8125	5933.626
1762	35.8125	5964.677
1763	35.8125	5964.677
1764	35.8125	5946.0312
1765	35.8125	5964.677
1766	35.8125	5970.9032
1767	35.8125	5989.6044
1768	35.8125	5890.3536
1770	35.8125	5946.0312
1771	35.8125	5946.0312
1772	35.8125	5964.677
1773	35.8125	5964.677
1774	35.8125	6002.493
1775	35.75	5970.9032
1776	35.8125	5964.677
1777	35.75	6002.493
1778	35.75	5970.9032
1779	35.75	5921.24
1780	35.75	5989.6044
1781	35.75	5970.9032
1782	35.75	6002.493
1783	35.75	5958.457
1785	35.75	5995.8508
1786	35.75	5970.9032
1787	35.75	6002.493
1788	35.75	5989.6044
1789	35.75	5995.8508
1790	35.75	5933.626
1791	35.75	5995.8508
1792	35.75	6002.493
1793	35.6875	6002.493
1794	35.6875	5977.1304
1795	35.75	5995.8508
1796	35.6875	6002.493
1797	35.6875	5946.0312
1798	35.6875	5995.8508
1799	35.6875	5983.37
1801	35.6875	6002.493
1802	35.6875	5977.1304
1803	35.625	5977.1304
1804	35.6875	6002.493
1805	35.625	5970.9032
1806	35.625	6002.493
1807	35.625	5939.825
1808	35.625	5977.1304
1809	35.625	5970.9032
1810	35.625	5977.1304
1811	35.625	5927.427
1812	35.625	5970.9032
1813	35.625	5946.0312
1814	35.625	5927.427
1816	35.5625	5970.9032
1817	35.5625	6002.493
1818	35.5625	5977.1304
1819	35.5625	5995.8508
1820	35.5625	5915.049
1821	35.5625	6002.493
1822	35.5625	6002.493
1823	35.5625	5983.37
1824	35.5625	6002.493
1825	35.5625	6002.493
1826	35.5625	5995.8508
1827	35.5625	5921.24
1828	35.5	5977.1304
1829	35.5	5989.6044
1831	35.5	6002.493
1832	35.5	5921.24
1833	35.5	6002.493
1834	35.5	5989.6044
1835	35.5	6002.493
1836	35.5	5983.37
1837	35.5	5995.8508
1838	35.5	6002.493
1839	35.5	5995.8508
1840	35.5	6002.493
1841	35.4375	5983.37
1842	35.5	6002.493
1843	35.5	5946.0312
1845	35.4375	6002.493
1846	35.4375	5989.6044
1847	35.4375	5927.427
1848	35.4375	6015.003
1849	35.4375	5946.0312
1850	35.375	5983.37
1851	35.25	6033.8124
1852	35.1875	6040.0936
1853	35.125	6046.376
1854	35.125	6021.27
1855	35.0625	6002.493
1856	35.0	6021.27
1857	35.0	6096.8268
1859	34.9375	6065.2552
1860	34.875	6115.8228
1861	34.875	6160.3344
1862	34.8125	6122.166
1863	34.8125	6115.8228
1864	34.75	6160.3344
1865	34.625	6147.5932
1866	34.625	6185.879
1867	34.5625	6211.505
1868	34.5	6173.096
1869	34.5	6198.6816
1870	34.4375	6198.6816
1872	34.4375	6237.208
1873	34.375	6217.924
1874	34.3125	6275.92
1875	34.25	6301.8356
1876	34.25	6288.867
1877	34.1875	6301.8356
1878	34.125	6295.348
1879	34.0625	6308.323
1880	34.0	6301.8356
1881	33.9375	6334.336
1882	33.875	6334.336
1883	33.875	6399.7384
1885	33.8125	6340.8576
1886	33.75	6380.067
1887	33.6875	6426.0484
1888	33.625	6393.1744
1889	33.625	6459.048
1890	33.5625	6472.2868
1891	33.5	6498.827
1892	33.5	6505.4804
1893	33.4375	6498.827
1894	33.375	6512.135
1895	33.3125	6532.126
1896	33.25	6538.801
1897	33.125	6532.126
1898	33.125	6585.6816
1899	33.0625	6592.3984
1900	33.0	6605.854
1901	32.9375	6632.828
1902	32.9375	6619.3308
1904	32.875	6653.1132
1905	32.8125	6639.581
1906	32.75	6693.839
1907	32.75	6659.887
1908	32.6875	6653.1132
1909	32.625	6687.037
1910	32.5625	6748.4492
1911	32.5	6775.8892
1912	32.4375	6775.8892
1913	32.4375	6734.7616
1914	32.375	6817.217
1915	32.3125	6831.0332
1916	32.25	6831.0332
1917	32.25	6837.9555
1918	32.1875	6803.41568
1919	32.125	6837.9555
1921	32.0625	6865.68768
1922	32.0625	6949.441
1923	32.0	6893.512
1924	32.0	6928.424
1925	31.9375	6914.4432
1926	31.875	6921.4296
1927	31.8125	6942.426
1928	31.75	6963.4784
1929	31.75	6893.512
1930	31.6875	7019.86736
1931	31.625	7041.10836
1932	31.5625	6991.6264
1933	31.5625	7048.203
1934	31.5	7112.3084
1935	31.4375	7076.633
1937	31.4375	7105.163
1938	31.375	7112.3084
1939	31.3125	7076.633
1940	31.3125	7148.1304
1941	31.25	7119.4616
1942	31.25	7119.4616
1943	31.1875	7155.31236
1944	31.125	7176.8948
1945	31.0625	7198.5282
1946	31.0625	7205.754
1947	31.0	7234.7152
1948	30.9375	7234.7152
1949	30.9375	7198.5282
1950	30.875	7314.8592
1951	30.875	7263.7725
1953	30.8125	7292.92536
1954	30.75	7329.51
1955	30.75	7329.51
1956	30.6875	7256.495
1957	30.6875	7373.609
1958	30.625	7256.495
1959	30.625	7285.626
1960	30.5625	7432.766
1961	30.5	7322.181
1962	30.4375	7366.243
1963	30.4375	7403.139
1964	30.375	7484.85636
1965	30.375	7351.533
1966	30.3125	7447.617
1967	30.3125	7417.945
1968	30.25	7522.2608
1970	30.25	7514.76736
1971	30.1875	7425.348
1972	30.1875	7529.7608
1973	30.125	7559.8152
1974	30.0625	7612.673
1975	30.0625	7529.7608
1976	30.0	7522.2608
1977	30.0	7559.8152
1978	29.9375	7627.83236
1979	29.9375	7589.983
1980	29.875	7612.673
1981	29.875	7650.6208
1982	29.8125	7620.249
1983	29.8125	7620.249
1984	29.75	7727.019
1986	29.75	7673.47
1987	29.6875	7727.019
1988	29.6875	7711.6848
1989	29.625	7696.38036
1990	29.625	7742.37636
1991	29.5625	7727.019
1992	29.5	7765.45536
1993	29.5	7696.38036
1994	29.5	7804.552
1995	29.4375	7812.29636
1996	29.4375	7851.11236
1997	29.375	7820.049
1998	29.375	7866.6868
2000	29.3125	7937.101
2001	29.3125	7789.086
2002	29.25	7897.9128
2003	29.25	7890.098
2004	29.25	7874.48536
2005	29.1875	7944.962
2006	29.125	7937.101
2007	29.125	7929.2552
2008	29.0625	7866.6868
2009	29.0625	7937.101
2010	29.0625	7921.4092
2011	29.0	7897.9128
2012	29.0	7960.69936
2014	28.9375	8023.92436
2015	28.9375	7976.46836
2016	28.9375	7929.2552
2017	28.875	8071.639
2018	28.875	8016.00036
2019	28.8125	8039.80268
2020	28.8125	8047.75
2021	28.8125	8135.652
2022	28.75	8063.66836
2023	28.75	8047.75
2024	28.6875	8079.618
2025	28.6875	8087.60436
2026	28.625	8047.75
2027	28.625	8000.16836
2029	28.625	8183.961
2030	28.5625	8135.652
2031	28.5625	8175.895
2032	28.5625	8135.652
2033	28.5	8192.035
2034	28.5	8183.961
2035	28.5	8183.961
2036	28.4375	8200.125
2037	28.4375	8175.895
2038	28.375	8248.778
2039	28.375	8256.908
2040	28.375	8240.648
2041	28.3125	8240.648
2042	28.3125	8240.648
2044	28.3125	8248.778
2045	28.25	8305.866
2046	28.25	8265.055
2047	28.25	8281.355
2048	28.25	8338.653
2049	28.1875	8371.553
2050	28.1875	8330.442
2051	28.125	8314.053
2052	28.125	8322.247
2053	28.125	8346.863
2054	28.0625	8265.055
2055	28.0625	8363.317
2056	28.0625	8346.863
2058	28.0625	8273.201
2059	28.0	8371.553
2060	28.0	8437.711
2061	28.0	8470.97
2062	28.0	8454.328
2063	27.9375	8412.843
2064	27.9375	8479.303
2065	27.875	8429.419
2066	27.875	8412.843
2067	27.875	8462.645
2068	27.875	8479.303
2069	27.8125	8470.97
2070	27.8125	8487.644
2072	27.8125	8454.328
2073	27.8125	8479.303
2074	27.75	8479.303
2075	27.75	8521.083
2076	27.75	8504.351
2077	27.75	8546.238
2078	27.6875	8529.465
2079	27.6875	8537.848
2080	27.625	8579.892
2081	27.625	8579.892
2082	27.625	8479.303
2083	27.625	8613.67
2084	27.5625	8647.564
2086	27.5625	8605.213
2087	27.5625	8605.213
2088	27.5625	8724.286
2089	27.5	8613.67
2090	27.5	8546.238
2091	27.5	8647.564
2092	27.5	8664.562
2093	27.4375	8664.562
2094	27.4375	8605.213
2095	27.4375	8588.324
2096	27.4375	8613.67
2097	27.375	8596.765
2098	27.375	8715.729
2099	27.375	8741.426
2100	27.375	8613.67
2102	27.375	8639.082
2103	27.3125	8775.789
2104	27.3125	8707.18
2105	27.3125	8698.64
2106	27.3125	8784.396
2107	27.3125	8775.789
2108	27.25	8818.921
2109	27.25	8656.0624
2110	27.25	8750.0
2111	27.1875	8715.729
2112	27.1875	8784.396
2113	27.1875	8767.182
2114	27.1875	8853.572
2115	27.125	8923.25
2116	27.125	8853.572
2117	27.125	8801.638
2119	27.125	8818.921
2120	27.125	8818.921
2121	27.125	8949.516
2122	27.0625	8750.0
2123	27.0625	8870.94
2124	27.0625	8888.343
2125	27.0625	8862.248
2126	27.0625	8975.851
2127	27.0	8793.013
2128	27.0	8914.515
2129	27.0	8914.515
2130	27.0	8958.286
2131	27.0	8905.779
2132	27.0	8888.343
2133	26.9375	8931.994
2134	26.9375	8923.25
2136	26.9375	8853.572
2137	26.9375	8958.286
2138	26.9375	8940.755
2139	26.9375	8958.286
2140	26.9375	9011.084
2141	26.875	8958.286
2142	26.875	9019.906
2143	26.875	8975.851
2144	26.875	9073.051
2145	26.8125	8949.516
2146	26.8125	8888.343
2147	26.8125	9028.744
2148	26.8125	9064.177
2149	26.8125	8967.064
2150	26.8125	9099.731
2151	26.75	9055.304
2153	26.8125	9046.439
2154	26.75	9002.263
2155	26.75	9081.933
2156	26.75	9028.744
2157	26.75	9064.177
2158	26.75	9028.744
2159	26.75	9046.439
2160	26.6875	9099.731
2161	26.6875	8975.851
2162	26.6875	9055.304
2163	26.6875	9081.933
2164	26.6875	9073.051
2165	26.625	9064.177
2166	26.625	9046.439
2168	26.625	9064.177
2169	26.625	9090.832
2170	26.625	9090.832
2171	26.625	9099.731
2172	26.625	9081.933
2173	26.625	9081.933
2174	26.625	9144.368
2175	26.625	9090.832
2176	26.5625	9189.215
2177	26.5625	9144.368
2178	26.5625	9171.25
2179	26.5625	9171.25
2180	26.5625	9126.491
2181	26.5625	9198.211
2182	26.5625	9234.273
2184	26.5	9108.64
2185	26.5	9108.64
2186	26.5	9198.211
2187	26.5	9153.32
2188	26.5	9207.207
2189	26.5	9162.281
2190	26.5	9162.281
2191	26.5	9261.402
2192	26.5	9198.211
2193	26.5	9234.273
2194	26.4375	9243.305
2195	26.4375	9207.207
2196	26.4375	9288.619
2197	26.4375	9243.305
2198	26.4375	9270.469
2200	26.4375	9261.402
2201	26.4375	9297.703
2202	26.4375	9162.281
2203	26.4375	9279.535
2204	26.375	9225.242
2205	26.375	9306.797
2206	26.375	9261.402
2207	26.375	9171.25
2208	26.375	9261.402
2209	26.375	9315.907
2210	26.3125	9270.469
2211	26.375	9288.619
2212	26.3125	9315.907
2213	26.3125	9270.469
2215	26.3125	9171.25
2216	26.3125	9343.275
2217	26.3125	9343.275
2218	26.3125	9352.413
2219	26.3125	9279.535
2220	26.3125	9370.716
2221	26.3125	9270.469
2222	26.25	9343.275
2223	26.25	9288.619
2224	26.25	9243.305
2225	26.25	9352.413
2226	26.25	9389.054
2227	26.25	9343.275
2228	26.25	9343.275
2230	26.25	9361.56
2231	26.25	9453.52
2232	26.25	9370.716
2233	26.25	9407.428
2234	26.1875	9370.716
2235	26.1875	9462.756
2236	26.1875	9379.88
2237	26.1875	9389.054
2238	26.1875	9444.283
2239	26.125	9370.716
2240	26.125	9389.054
2241	26.125	9444.283
2242	26.125	9389.054
2244	26.125	9416.628
2245	26.125	9425.837
2246	26.125	9453.52
2247	26.125	9379.88
2248	26.125	9499.819
2249	26.125	9425.837
2250	26.125	9435.056
2251	26.125	9472.011
2252	26.0625	9444.283
2253	26.0625	9527.71
2254	26.0625	9490.547
2255	26.0625	9509.11
2257	26.0625	9518.41
2258	26.0625	9370.716
2259	26.0625	9472.011
2260	26.0625	9537.027
2261	26.0625	9574.373
2262	26.0	9509.11
2263	26.0	9509.11
2264	26.0	9425.837
2265	26.0	9389.054
2266	26.0	9398.236
2267	26.0	9509.11
2268	26.0	9490.547
2269	26.0	9555.682
