time	temperature	resistance
0	0	11417.365
0	0	11328.147
10	22.375	11383.824
0	0	11417.365
10	22.375	11372.669
20	22.375	11350.381
30	22.375	11328.147
40	22.375	11383.824
50	22.375	11383.824
60	22.375	11372.669
70	22.375	11383.824
80	22.375	11406.178
90	22.375	11372.669
100	22.375	11383.824
110	22.375	11361.514
120	22.375	11372.669
130	22.375	11394.99
140	22.375	11394.99
150	22.375	11394.99
160	22.375	11394.99
170	22.375	11406.178
180	22.375	11417.365
190	22.375	11372.669
200	22.375	11462.26
210	22.3125	11394.99
220	22.3125	11383.824
230	22.375	11417.365
240	22.375	11417.365
250	22.375	11394.99
260	22.375	11417.365
270	22.375	11417.365
280	22.375	11439.785
290	22.375	11406.178
300	22.375	11394.99
310	22.375	11417.365
320	22.375	11417.365
330	22.375	11439.785
340	22.375	11417.365
350	22.375	11406.178
360	22.375	11394.99
370	22.375	11417.365
380	22.375	11406.178
390	22.375	11417.365
400	22.375	11406.178
410	22.375	11406.178
420	22.375	11394.99
430	22.375	11406.178
440	22.375	11417.365
450	22.375	11406.178
460	22.375	11462.26
470	22.375	11383.824
480	22.375	11417.365
490	22.375	11394.99
500	22.375	11417.365
510	22.375	11394.99
520	22.375	11417.365
530	22.375	11417.365
540	22.375	11417.365
550	22.375	11417.365
560	22.375	11394.99
570	22.375	11406.178
580	22.375	11394.99
590	22.375	11417.365
600	22.375	11394.99
610	22.375	11394.99
620	22.375	11439.785
630	22.375	11439.785
640	22.375	11406.178
650	22.375	11394.99
660	22.375	11439.785
670	22.375	11451.017
680	22.375	11406.178
690	22.375	11417.365
700	22.375	11383.824
710	22.375	11417.365
720	22.375	11406.178
730	22.375	11406.178
740	22.375	11372.669
750	22.375	11406.178
760	22.375	11394.99
770	22.375	11417.365
780	22.375	11406.178
790	22.375	11417.365
800	22.375	11383.824
810	22.4375	11406.178
820	22.375	11417.365
830	22.375	11394.99
840	22.4375	11406.178
850	22.375	11383.824
860	22.4375	11417.365
870	22.4375	11383.824
880	22.375	11439.785
890	22.375	11439.785
900	22.375	11417.365
910	22.375	11417.365
920	22.375	11439.785
930	22.375	11451.017
940	22.375	11406.178
950	22.375	11417.365
960	22.375	11417.365
970	22.375	11417.365
980	22.375	11417.365
990	22.375	11406.178
1000	22.375	11439.785
1010	22.375	11394.99
1020	22.375	11417.365
1030	22.375	11383.824
1040	22.4375	11394.99
1050	22.375	11417.365
1060	22.4375	11394.99
1070	22.4375	11361.514
1080	22.4375	11372.669
1090	22.4375	11383.824
1100	22.4375	11372.669
1110	22.4375	11406.178
1120	22.4375	11394.99
1130	22.4375	11394.99
1140	22.4375	11372.669
1150	22.4375	11394.99
1160	22.4375	11372.669
1170	22.4375	11372.669
1180	22.4375	11350.381
1190	22.4375	11328.147
1200	22.4375	11383.824
1210	22.4375	11372.669
1220	22.4375	11283.821
1230	22.4375	11328.147
1240	22.4375	11328.147
1250	22.4375	11372.669
1260	22.4375	11328.147
1270	22.4375	11350.381
1280	22.4375	11328.147
1290	22.4375	11361.514
1300	22.5	11372.669
1310	22.5	11328.147
1320	22.5	11361.514
1330	22.5	11328.147
1340	22.5	11283.821
1350	22.5	11317.047
1360	22.5	11305.957
1370	22.5	11328.147
1380	22.5	11305.957
1390	22.5	11361.514
1400	22.5	11317.047
1410	22.5	11317.047
1420	22.5	11328.147
1430	22.5	11317.047
1440	22.5	11328.147
1450	22.5	11305.957
1460	22.5	11328.147
1471	22.5	11283.821
1481	22.5	11305.957
1491	22.5	11294.879
1501	22.5	11317.047
1511	22.5	11305.957
1521	22.5	11328.147
1531	22.5	11305.957
1541	22.5	11305.957
1551	22.5	11294.879
1561	22.5	11328.147
1571	22.5	11305.957
1581	22.5	11328.147
1591	22.5	11328.147
1601	22.5	11317.047
1611	22.5	11328.147
1621	22.5	11328.147
1631	22.5	11305.957
1641	22.5	11294.879
1651	22.5	11283.821
1661	22.5	11283.821
1671	22.5	11283.821
1681	22.5	11305.957
1691	22.5	11283.821
1701	22.5	11305.957
1711	22.5	11317.047
1721	22.5	11317.047
1731	22.5	11305.957
1741	22.5625	11305.957
1751	22.5625	11294.879
1761	22.5625	11294.879
1771	22.5	11294.879
1781	22.5	11305.957
1791	22.5625	11272.765
1801	22.5625	11283.821
1811	22.5625	11294.879
1821	22.5	11294.879
1831	22.5	11283.821
1841	22.5	11305.957
1851	22.5	11283.821
1861	22.5625	11272.765
1871	22.5625	11283.821
1881	22.5625	11272.765
1891	22.5625	11261.719
1901	22.5625	11283.821
1911	22.5625	11283.821
1921	22.5625	11239.67
1931	22.5625	11305.957
1941	22.5625	11283.821
1951	22.5625	11261.719
1961	22.5625	11272.765
1971	22.5625	11305.957
1981	22.5625	11272.765
1991	22.5625	11283.821
2001	22.5625	11272.765
2011	22.5625	11261.719
2021	22.5625	11283.821
2031	22.5625	11283.821
2041	22.5625	11283.821
2051	22.5625	11294.879
2061	22.5625	11272.765
2071	22.5625	11294.879
2081	22.5625	11305.957
2091	22.5625	11283.821
2101	22.5625	11239.67
2111	22.5625	11261.719
2121	22.5625	11283.821
2131	22.5625	11283.821
2141	22.5625	11239.67
2151	22.5625	11283.821
2161	22.5625	11261.719
2171	22.5625	11261.719
2181	22.5625	11283.821
2191	22.5625	11261.719
2201	22.5625	11261.719
2211	22.5625	11261.719
2221	22.5625	11283.821
2231	22.5625	11261.719
2241	22.5625	11283.821
2251	22.5625	11283.821
2261	22.5625	11239.67
2271	22.5625	11239.67
2281	22.5625	11283.821
2291	22.625	11261.719
2301	22.625	11272.765
2311	22.625	11261.719
2321	22.625	11272.765
2331	22.625	11228.666
2341	22.625	11239.67
2351	22.625	11206.682
2361	22.625	11239.67
2371	22.625	11184.74
2381	22.625	11272.765
2391	22.625	11239.67
2401	22.625	11217.664
2411	22.625	11239.67
2421	22.625	11217.664
2431	22.625	11239.67
2441	22.625	11206.682
2451	22.625	11239.67
2461	22.625	11195.7
2471	22.625	11217.664
2481	22.625	11228.666
2491	22.625	11228.666
2501	22.625	11195.7
2511	22.625	11239.67
2521	22.625	11217.664
2531	22.625	11217.664
2541	22.625	11217.664
2551	22.625	11206.682
2561	22.625	11217.664
2571	22.625	11217.664
2581	22.625	11228.666
2591	22.625	11217.664
2601	22.625	11239.67
2611	22.625	11239.67
2621	22.625	11217.664
2631	22.625	11239.67
2641	22.625	11217.664
2651	22.625	11239.67
2661	22.625	11239.67
2671	22.625	11239.67
2681	22.625	11228.666
2691	22.625	11250.693
2701	22.625	11217.664
2711	22.625	11217.664
2721	22.625	11239.67
2731	22.625	11261.719
2741	22.625	11239.67
2751	22.625	11239.67
2761	22.625	11228.666
2771	22.625	11217.664
2781	22.625	11239.67
2791	22.625	11217.664
2801	22.625	11261.719
2811	22.625	11239.67
2821	22.625	11239.67
2831	22.625	11217.664
2841	22.625	11217.664
2851	22.625	11239.67
2861	22.625	11217.664
2871	22.625	11217.664
2881	22.625	11239.67
2891	22.625	11261.719
2901	22.625	11239.67
2911	22.625	11217.664
2921	22.625	11239.67
2931	22.625	11239.67
2941	22.625	11228.666
2951	22.625	11239.67
2961	22.625	11239.67
2971	22.625	11228.666
2981	22.625	11283.821
2991	22.625	11239.67
3001	22.625	11228.666
3011	22.625	11217.664
3021	22.625	11228.666
3031	22.625	11239.67
3041	22.625	11239.67
3051	22.625	11228.666
3061	22.625	11250.693
3071	22.625	11195.7
3081	22.625	11217.664
3091	22.625	11239.67
3101	22.625	11228.666
3111	22.625	11228.666
3121	22.625	11228.666
3131	22.625	11239.67
3141	22.625	11239.67
3151	22.625	11228.666
3161	22.625	11195.7
3171	22.625	11261.719
3181	22.625	11228.666
3191	22.625	11261.719
3201	22.625	11217.664
3211	22.625	11228.666
3221	22.625	11228.666
3231	22.6875	11217.664
3241	22.625	11239.67
3251	22.625	11217.664
3261	22.625	11239.67
3271	22.6875	11217.664
3281	22.6875	11173.791
3291	22.6875	11228.666
3301	22.6875	11195.7
3311	22.6875	11228.666
3321	22.625	11195.7
3331	22.6875	11217.664
3341	22.6875	11206.682
3351	22.6875	11228.666
3361	22.6875	11195.7
3371	22.6875	11206.682
3381	22.6875	11195.7
3391	22.75	11195.7
3401	22.6875	11195.7
3411	22.6875	11217.664
3421	22.6875	11217.664
3431	22.75	11195.7
3441	22.6875	11184.74
3451	22.75	11206.682
3461	22.75	11184.74
3471	22.75	11195.7
3481	22.75	11184.74
3491	22.8125	11195.7
3501	22.8125	11173.791
3511	22.8125	11195.7
3521	22.8125	11173.791
3531	22.8125	11151.925
3541	22.75	11151.925
3551	22.75	11184.74
3561	22.75	11173.791
3571	22.75	11141.008
3581	22.75	11141.008
3591	22.75	11184.74
3601	22.75	11151.925
3611	22.75	11173.791
3621	22.75	11173.791
3631	22.75	11173.791
3641	22.75	11173.791
3651	22.75	11151.925
3661	22.75	11151.925
3671	22.75	11173.791
3681	22.75	11151.925
3691	22.75	11173.791
3701	22.75	11173.791
3711	22.75	11195.7
3721	22.75	11151.925
3731	22.75	11184.74
3741	22.75	11217.664
3751	22.75	11173.791
3761	22.75	11173.791
3771	22.75	11184.74
3781	22.75	11173.791
3791	22.75	11151.925
3801	22.75	11195.7
3811	22.75	11206.682
3821	22.75	11195.7
3831	22.75	11173.791
3841	22.75	11184.74
3851	22.75	11173.791
3861	22.8125	11173.791
3871	22.8125	11184.74
3881	22.75	11195.7
3891	22.75	11151.925
3901	22.75	11173.791
3911	22.8125	11130.102
3921	22.8125	11173.791
3931	22.8125	11151.925
3941	22.8125	11184.74
3951	22.8125	11184.74
3961	22.8125	11173.791
3971	22.8125	11195.7
3981	22.8125	11151.925
3991	22.8125	11151.925
4001	22.8125	11173.791
4011	22.8125	11151.925
4021	22.8125	11173.791
4031	22.8125	11173.791
4041	22.8125	11173.791
4051	22.8125	11141.008
4061	22.8125	11151.925
4071	22.8125	11173.791
4081	22.8125	11173.791
4091	22.8125	11151.925
4101	22.8125	11151.925
4111	22.8125	11151.925
4121	22.8125	11119.206
4131	22.8125	11173.791
4141	22.8125	11151.925
4151	22.8125	11173.791
4161	22.8125	11151.925
4171	22.8125	11184.74
4181	22.8125	11130.102
4191	22.8125	11151.925
4201	22.8125	11151.925
4211	22.8125	11130.102
4221	22.8125	11151.925
4231	22.8125	11151.925
4241	22.8125	11141.008
4251	22.8125	11151.925
4261	22.8125	11151.925
4271	22.8125	11151.925
4281	22.8125	11151.925
4291	22.8125	11162.853
4301	22.8125	11151.925
4311	22.8125	11151.925
4321	22.8125	11151.925
4331	22.8125	11151.925
4341	22.8125	11151.925
4351	22.8125	11151.925
4361	22.8125	11141.008
4371	22.8125	11151.925
4381	22.8125	11151.925
4391	22.8125	11151.925
4401	22.8125	11151.925
4411	22.8125	11141.008
4421	22.875	11141.008
4431	22.8125	11141.008
4441	22.8125	11151.925
4451	22.8125	11151.925
4461	22.8125	11151.925
4471	22.8125	11151.925
4481	22.875	11141.008
4491	22.8125	11151.925
4501	22.875	11151.925
4511	22.8125	11151.925
4521	22.8125	11130.102
4531	22.875	11151.925
4541	22.875	11141.008
4551	22.8125	11141.008
4561	22.875	11130.102
4571	22.8125	11151.925
4581	22.875	11130.102
4591	22.875	11141.008
4601	22.8125	11141.008
4611	22.875	11141.008
4621	22.8125	11151.925
4631	22.8125	11151.925
4641	22.8125	11151.925
4651	22.8125	11141.008
4661	22.8125	11119.206
4671	22.875	11151.925
4681	22.8125	11097.446
4691	22.875	11108.32
4701	22.875	11151.925
4711	22.875	11141.008
4721	22.875	11119.206
4731	22.875	11141.008
4741	22.875	11141.008
4751	22.875	11130.102
4761	22.875	11151.925
4771	22.875	11108.32
4782	22.875	11130.102
4792	22.875	11151.925
4802	22.875	11119.206
4812	22.875	11130.102
4822	22.875	11141.008
4832	22.875	11108.32
4842	22.875	11151.925
4852	22.875	11130.102
4862	22.875	11108.32
4872	22.875	11130.102
4882	22.875	11141.008
4892	22.875	11130.102
4902	22.875	11108.32
4912	22.875	11108.32
4922	22.875	11130.102
4932	22.875	11130.102
4942	22.875	11141.008
4952	22.875	11119.206
4962	22.875	11130.102
4972	22.875	11108.32
4982	22.875	11108.32
4992	22.875	11130.102
5002	22.875	11119.206
5012	22.875	11130.102
5022	22.875	11108.32
5032	22.875	11130.102
5042	22.875	11119.206
5052	22.875	11130.102
5062	22.875	11130.102
5072	22.9375	11108.32
5082	22.875	11141.008
5092	22.875	11108.32
5102	22.875	11119.206
5112	22.875	11108.32
5122	22.875	11119.206
5132	22.875	11108.32
5142	22.875	11108.32
5152	22.875	11097.446
5162	22.875	11119.206
5172	22.875	11141.008
5182	22.875	11108.32
5192	22.875	11130.102
5202	22.875	11130.102
5212	22.875	11108.32
5222	22.9375	11130.102
5232	22.875	11097.446
5242	22.875	11130.102
5252	22.875	11108.32
5262	22.875	11108.32
5272	22.9375	11130.102
5282	22.875	11108.32
5292	22.875	11130.102
5302	22.875	11108.32
5312	22.875	11108.32
5322	22.875	11108.32
5332	22.875	11130.102
5342	22.875	11108.32
5352	22.875	11108.32
5362	22.875	11108.32
5372	22.875	11130.102
5382	22.875	11119.206
5392	22.9375	11108.32
5402	22.875	11108.32
5412	22.9375	11108.32
5422	22.875	11108.32
5432	22.875	11130.102
5442	22.875	11086.582
5452	22.875	11097.446
5462	22.875	11119.206
5472	22.875	11119.206
5482	22.875	11108.32
5492	22.9375	11108.32
5502	22.875	11119.206
5512	22.875	11108.32
5522	22.875	11108.32
5532	22.9375	11108.32
5542	22.875	11108.32
5552	22.875	11130.102
5562	22.9375	11130.102
5572	22.9375	11097.446
5582	22.875	11119.206
5592	22.875	11086.582
5602	22.875	11097.446
5612	22.9375	11119.206
5622	22.875	11130.102
5632	22.875	11228.666
5642	22.875	11130.102
5652	22.9375	11119.206
5662	22.9375	11130.102
5672	22.875	11130.102
5682	22.875	11108.32
5692	22.875	11108.32
5702	22.875	11119.206
5712	22.875	11097.446
5722	22.875	11130.102
5732	22.875	11119.206
5742	22.875	11130.102
5752	22.875	11108.32
5762	22.875	11097.446
5772	22.875	11130.102
5782	22.875	11130.102
5792	22.875	11119.206
5802	22.875	11151.925
5812	22.875	11108.32
5822	22.875	11108.32
5832	22.875	11108.32
5842	22.875	11151.925
5852	22.875	11173.791
5862	22.875	11141.008
5872	22.875	11130.102
5882	22.9375	11108.32
5892	22.9375	11097.446
5902	22.9375	11130.102
5912	22.875	11119.206
5922	22.875	11108.32
5932	22.875	11108.32
5942	22.9375	11108.32
5952	22.9375	11108.32
5962	22.875	11119.206
5972	22.9375	11130.102
5982	22.9375	11119.206
5992	22.9375	11097.446
6002	22.9375	11130.102
6012	22.9375	11119.206
6022	22.875	11108.32
6032	22.875	11097.446
6042	22.875	11119.206
6052	22.9375	11108.32
6062	22.9375	11108.32
6072	22.875	11097.446
6082	22.9375	11119.206
6092	22.9375	11021.654
6102	22.875	11097.446
6112	22.9375	11119.206
6122	22.9375	11086.582
6132	22.9375	11108.32
6142	22.9375	11108.32
6152	22.9375	11119.206
6162	22.9375	11119.206
6172	22.9375	11119.206
6182	22.875	11119.206
6192	22.875	11130.102
6202	22.875	11086.582
6212	22.875	11130.102
6222	22.875	11130.102
6232	22.9375	11097.446
6242	22.9375	11097.446
6252	22.9375	11119.206
6262	22.875	11097.446
6272	22.875	11130.102
6282	22.875	11097.446
6292	22.9375	11119.206
6302	22.875	11108.32
6312	22.9375	11108.32
6322	22.9375	11130.102
6332	22.9375	11108.32
6342	22.9375	11097.446
6352	22.9375	11064.897
6362	22.9375	11075.74
6372	22.9375	11064.897
6382	22.9375	11108.32
6392	22.9375	11097.446
6402	22.9375	11097.446
6412	22.9375	11119.206
6422	22.9375	11108.32
6432	22.9375	11108.32
6442	22.9375	11097.446
6452	22.9375	11086.582
6462	22.9375	11108.32
6472	22.9375	11097.446
6482	22.9375	11108.32
6492	22.9375	11108.32
6502	22.9375	11108.32
6512	22.9375	11054.065
6522	22.9375	11064.897
6532	22.9375	11108.32
6542	22.9375	11086.582
6552	22.9375	11184.74
6562	22.9375	11075.74
6572	22.9375	11086.582
6582	22.9375	11108.32
6592	22.9375	11097.446
6602	22.9375	11064.897
6612	22.9375	11086.582
6622	22.9375	11075.74
6632	22.9375	11097.446
6642	22.9375	11086.582
6652	22.9375	11054.065
6662	23.0	11086.582
6672	22.9375	11064.897
6682	22.9375	11054.065
6692	22.9375	11064.897
6702	22.9375	11064.897
6712	22.9375	11075.74
6722	22.9375	11064.897
6732	22.9375	11097.446
6742	22.9375	11097.446
6752	22.9375	11064.897
6762	22.9375	11086.582
6772	22.9375	11097.446
6782	22.9375	11086.582
6792	22.9375	11097.446
6802	22.9375	11108.32
6812	22.9375	11119.206
6822	22.9375	11054.065
6832	22.9375	11086.582
6842	22.9375	11097.446
6852	22.9375	11097.446
6862	23.0	11064.897
6872	22.9375	11086.582
6882	22.9375	11043.255
6892	22.9375	11108.32
6902	22.9375	11086.582
6912	22.9375	11064.897
6922	22.9375	11108.32
6932	22.9375	11064.897
6942	23.0	11097.446
6952	22.9375	11064.897
6962	23.0	11086.582
6972	23.0	11097.446
6982	22.9375	11054.065
6992	23.0	11064.897
7002	23.0	10978.591
7012	23.0	11064.897
7022	23.0625	11054.065
7032	23.0	11043.255
7042	23.0	11043.255
7052	23.0	11054.065
7062	23.0	11043.255
7072	23.0	11064.897
7082	23.0	11043.255
7092	23.0	11021.654
7102	23.0	11032.443
7112	23.0	11021.654
7122	23.0	11032.443
7132	23.0	11032.443
7142	23.0	11054.065
7152	23.0	11043.255
7162	23.0	11032.443
7172	23.0	11064.897
7182	23.0	11032.443
7192	23.0	11032.443
7202	23.0625	11054.065
7212	23.0	11043.255
7222	23.0625	11054.065
7232	23.0625	11043.255
7242	23.0625	11021.654
7252	23.0	11075.74
7262	23.0	11021.654
7272	23.0625	11021.654
7282	23.0	11043.255
7292	23.0	11043.255
7302	23.0	11021.654
7312	23.0	11043.255
7322	23.0	11043.255
7332	23.0	11021.654
7342	23.0	11043.255
7352	23.0	11043.255
7362	23.0	11032.443
7372	23.0	11021.654
7382	23.0	11021.654
7392	23.0	11043.255
7402	23.0	11021.654
7412	23.0	11043.255
7422	23.0	11043.255
7432	23.0	11021.654
7442	23.0625	11043.255
7452	23.0	11032.443
7462	23.0	11000.096
7472	23.0625	11043.255
7482	23.0625	11021.654
7492	23.0	11043.255
7502	23.0625	11000.096
7512	23.0625	11032.443
7522	23.0625	11032.443
7532	23.0625	11043.255
7542	23.0625	11032.443
7552	23.0625	11043.255
7562	23.0625	11010.865
7572	23.0625	11021.654
7582	23.0625	11021.654
7592	23.0625	11032.443
7602	23.0625	11010.865
7612	23.0625	11032.443
7622	23.0625	11043.255
7632	23.0625	11032.443
7642	23.0625	11010.865
7652	23.0625	11043.255
7662	23.0625	11021.654
7672	23.0625	11010.865
7682	23.0625	11000.096
0	0	10989.338
10	23.125	11000.096
20	23.125	10978.591
30	23.125	10978.591
40	23.125	10967.844
50	23.125	10967.844
60	23.125	10967.844
70	23.125	10935.695
80	23.125	11000.096
90	23.125	10978.591
100	23.125	10935.695
110	23.125	10978.591
120	23.125	10957.117
130	23.125	10957.117
140	23.125	10957.117
150	23.125	10978.591
160	23.125	10978.591
170	23.125	10967.844
180	23.125	10978.591
190	23.125	10967.844
200	23.1875	10978.591
210	23.1875	10957.117
220	23.1875	10957.117
230	23.125	10946.4
240	23.1875	10978.591
250	23.125	10978.591
260	23.125	10967.844
270	23.1875	11097.446
280	23.1875	10946.4
290	23.1875	10957.117
300	23.25	10957.117
310	23.25	10957.117
320	23.25	10935.695
330	23.25	10957.117
340	23.25	10892.979
350	23.25	10935.695
360	23.25	10935.695
370	23.1875	10935.695
380	23.1875	10957.117
391	23.25	10946.4
401	23.25	10935.695
411	23.25	10925.0
421	23.25	10914.316
431	23.25	10892.979
441	23.25	10882.324
451	23.25	10914.316
461	23.25	10892.979
471	23.3125	10914.316
481	23.3125	10903.642
491	23.3125	10892.979
501	23.3125	10882.324
511	23.3125	10882.324
521	23.25	10892.979
531	23.25	10914.316
541	23.25	10892.979
551	23.25	10925.0
561	23.25	10914.316
571	23.3125	10892.979
581	23.25	10892.979
591	23.25	10914.316
601	23.3125	10914.316
611	23.3125	10892.979
621	23.3125	10892.979
631	23.3125	10914.316
641	23.3125	10871.682
651	23.3125	10925.0
661	23.3125	10914.316
671	23.3125	10892.979
681	23.3125	10892.979
691	23.3125	10914.316
701	23.3125	10914.316
711	23.3125	10914.316
0	23.4375	10946.4
10	23.4375	10786.944
20	23.4375	10935.695
30	23.4375	10882.324
40	23.4375	10882.324
50	23.4375	10829.225
60	23.4375	10957.117
70	23.4375	10925.0
80	23.4375	10892.979
90	23.4375	10925.0
100	23.4375	10871.682
110	23.4375	10871.682
120	23.4375	11000.096
130	23.4375	10925.0
140	23.4375	10882.324
150	23.4375	10957.117
160	23.5	10882.324
170	23.5	10946.4
180	23.5	10861.05
190	23.5	10850.4376
200	23.5	10861.05
210	23.5	10861.05
220	23.5	10935.695
230	23.5	10957.117
240	23.5	10808.064
250	23.5	10850.4376
260	23.5	10829.225
270	23.5	10914.316
280	23.5	10892.979
290	23.5	10776.404
300	23.5	10808.064
311	23.5	10871.682
321	23.5	10925.0
331	23.5	10797.504
341	23.5	10914.316
351	23.5625	10755.347
361	23.5625	10839.826
371	23.5625	10829.225
381	23.5625	10882.324
391	23.5625	10861.05
401	23.5625	10808.064
411	23.5625	10850.4376
421	23.5625	10818.645
431	23.5625	10829.225
441	23.5625	10839.826
451	23.5625	10692.43
461	23.5625	10808.064
472	23.625	10871.682
482	23.625	10839.826
492	23.5625	10744.828
502	23.5625	10723.842
512	23.5625	10776.404
522	23.5625	10786.944
532	23.5625	10925.0
542	23.5625	10776.404
552	23.5625	10797.504
562	23.5625	10829.225
572	23.625	10861.05
582	23.625	10797.504
592	23.5625	10839.826
602	23.625	10839.826
612	23.625	10786.944
622	23.625	10786.944
632	23.625	10786.944
643	23.625	10702.887
653	23.625	10829.225
663	23.625	10765.865
673	23.625	10723.842
683	23.625	10776.404
693	23.625	10808.064
703	23.625	10829.225
713	23.625	10681.983
723	23.625	10871.682
733	23.625	10882.324
743	23.625	10776.404
753	23.625	10829.225
763	23.6875	10765.865
773	23.6875	10786.944
783	23.6875	10713.365
794	23.6875	10755.347
804	23.6875	10702.887
814	23.6875	10744.828
824	23.6875	10861.05
834	23.6875	10755.347
844	23.6875	10765.865
854	23.6875	10882.324
864	23.6875	10776.404
874	23.625	10765.865
884	23.6875	10839.826
894	23.6875	10808.064
904	23.6875	10850.4376
914	23.6875	10786.944
924	23.6875	10808.064
935	23.75	10765.865
945	23.6875	10723.842
955	23.75	10755.347
965	23.75	10723.842
975	23.75	10755.347
985	23.75	10661.12
995	23.75	10744.828
1005	23.75	10640.297
1015	23.75	10765.865
1025	23.6875	10755.347
1035	23.6875	10744.828
1045	23.6875	10671.547
1055	23.6875	10744.828
1065	23.6875	10765.865
1075	23.6875	10776.404
1086	23.6875	10692.43
1096	23.75	10839.826
1106	23.6875	10661.12
1116	23.6875	10786.944
1126	23.75	10765.865
1136	23.75	10808.064
1146	23.75	10744.828
1156	23.75	10702.887
1166	23.75	10829.225
1176	23.75	10808.064
1186	23.75	10661.12
1196	23.8125	10671.547
1206	23.8125	10702.887
1216	23.8125	10723.842
1226	23.8125	10776.404
1237	23.75	10776.404
1247	23.75	10755.347
1257	23.8125	10776.404
1267	23.75	10702.887
1277	23.75	10723.842
1287	23.75	10776.404
1297	23.8125	10619.516
1307	23.8125	10723.842
1317	23.75	10713.365
1327	23.75	10776.404
1337	23.75	10776.404
1347	23.75	10723.842
1357	23.8125	10755.347
1367	23.75	10692.43
1378	23.75	10755.347
1388	23.75	10744.828
1398	23.75	10640.297
1408	23.8125	10808.064
1418	23.8125	10598.774
1428	23.8125	10765.865
1438	23.8125	10692.43
1448	23.75	10619.516
1458	23.75	10713.365
1468	23.75	10723.842
1478	23.8125	10723.842
1488	23.8125	10755.347
1498	23.8125	10702.887
1508	23.8125	10692.43
1519	23.8125	10723.842
1529	23.8125	10692.43
1539	23.8125	10692.43
1549	23.8125	10681.983
1559	23.8125	10723.842
1569	23.8125	10713.365
1579	23.8125	10713.365
1589	23.8125	10640.297
1599	23.8125	10661.12
1609	23.75	10776.404
1619	23.75	10723.842
1629	23.75	10786.944
1639	23.75	10861.05
1650	23.75	10786.944
1660	23.75	10629.901
1670	23.75	10786.944
1680	23.75	10786.944
1690	23.75	10797.504
1700	23.75	10839.826
1710	23.75	10681.983
1720	23.75	10808.064
1730	23.75	10723.842
1740	23.75	10808.064
1750	23.75	10861.05
1760	23.8125	10839.826
1770	23.8125	10744.828
1781	23.75	10861.05
1791	23.75	10861.05
1801	23.75	10850.4376
1811	23.75	10808.064
1821	23.75	10808.064
1831	23.8125	10776.404
1841	23.8125	10681.983
1851	23.8125	10723.842
1861	23.875	10786.944
1871	23.875	10765.865
1881	23.8125	10702.887
1891	23.8125	10755.347
1901	23.8125	10723.842
1911	23.8125	10723.842
1922	23.75	10776.404
1932	23.75	10609.14
1942	23.75	10755.347
1952	23.75	10839.826
1962	23.75	10829.225
1972	23.8125	10839.826
1982	23.8125	10723.842
1992	23.8125	10723.842
2002	23.8125	10808.064
2012	23.8125	10661.12
2022	23.8125	10723.842
2032	23.8125	10839.826
2042	23.8125	10786.944
2052	23.8125	10713.365
2063	23.8125	10786.944
2073	23.875	10786.944
2083	23.8125	10713.365
2093	23.8125	10640.297
2103	23.8125	10765.865
2113	23.8125	10661.12
2123	23.8125	10765.865
2133	23.8125	10755.347
2143	23.8125	10702.887
2153	23.8125	10776.404
2163	23.8125	10755.347
2173	23.875	10713.365
2183	23.8125	10818.645
2193	23.875	10650.703
2203	23.875	10557.424
2213	23.875	10744.828
2224	23.875	10640.297
2234	23.875	10786.944
2244	23.8125	10629.901
2254	23.8125	10723.842
2264	23.8125	10713.365
2274	23.8125	10702.887
2284	23.8125	10713.365
2294	23.875	10598.774
2304	23.875	10702.887
2314	23.875	10629.901
2324	23.875	10692.43
2334	23.8125	10702.887
2344	23.875	10588.419
2354	23.875	10661.12
2364	23.875	10744.828
2374	23.875	10723.842
2384	23.875	10692.43
2395	23.875	10723.842
2405	23.875	10755.347
2415	23.875	10692.43
2425	23.875	10671.547
2435	23.875	10661.12
2445	23.875	10692.43
2455	23.875	10588.419
2465	23.9375	10598.774
2475	23.9375	10661.12
2485	23.9375	10640.297
2495	23.875	10640.297
2505	23.875	10702.887
2515	23.875	10598.774
2525	23.875	10557.424
2535	23.875	10640.297
2545	23.875	10692.43
2556	23.875	10588.419
2566	23.9375	10713.365
2576	23.9375	10692.43
2586	23.9375	10619.516
2596	23.875	10723.842
2606	23.875	10681.983
2616	23.875	10744.828
2626	23.9375	10661.12
2636	23.9375	10829.225
2646	23.9375	10681.983
2656	23.9375	10765.865
2666	23.9375	10692.43
2676	23.9375	10609.14
2686	23.9375	10671.547
2696	23.9375	10640.297
2707	23.9375	10702.887
2717	23.9375	10776.404
2727	23.9375	10547.108
2737	23.9375	10723.842
2747	23.9375	10650.703
2757	23.9375	10723.842
2767	23.9375	10723.842
2777	23.9375	10755.347
2787	23.875	10671.547
2797	23.9375	10702.887
2807	23.9375	10671.547
2817	23.9375	10765.865
2827	23.9375	10755.347
2837	23.9375	10702.887
2847	23.9375	10702.887
2858	23.9375	10671.547
2868	23.9375	10681.983
2878	23.9375	10702.887
2888	23.9375	10661.12
2898	23.9375	10671.547
2908	23.9375	10692.43
2918	23.9375	10681.983
2928	23.9375	10671.547
2938	24.0	10702.887
2948	24.0	10692.43
2958	24.0	10661.12
2968	24.0	10692.43
2978	23.9375	10702.887
2988	23.9375	10692.43
2999	23.9375	10702.887
3009	23.9375	10681.983
3019	23.9375	10713.365
3029	23.9375	10702.887
3039	24.0	10619.516
3049	24.0	10713.365
3059	24.0	10650.703
3069	24.0	10744.828
3079	24.0	10640.297
3089	24.0	10661.12
3099	23.9375	10702.887
3109	23.9375	10713.365
3119	23.9375	10619.516
3129	23.9375	10681.983
3140	23.9375	10681.983
3150	23.9375	10640.297
3160	24.0	10671.547
3170	24.0	10640.297
3180	24.0	10681.983
3190	24.0	10681.983
3200	24.0	10547.108
3210	23.9375	10661.12
3220	23.9375	10755.347
3230	23.9375	10692.43
3240	23.9375	10702.887
3250	23.9375	10713.365
3260	23.9375	10598.774
3270	23.9375	10588.419
3281	23.9375	10702.887
3291	23.9375	10713.365
3301	23.9375	10681.983
3311	23.9375	10671.547
3321	23.9375	10557.424
3331	23.9375	10702.887
3341	23.9375	10578.074
3351	23.9375	10640.297
3361	23.9375	10702.887
3371	23.9375	10692.43
3381	23.9375	10681.983
3391	23.9375	10640.297
3401	23.9375	10765.865
3411	23.9375	10692.43
3422	23.9375	10755.347
3432	23.9375	10609.14
3442	23.9375	10629.901
3452	23.9375	10692.43
3462	23.9375	10692.43
3472	23.9375	10671.547
3482	23.9375	10640.297
3492	23.9375	10713.365
3502	23.9375	10588.419
3512	23.9375	10681.983
3522	23.9375	10692.43
3532	23.9375	10598.774
3542	23.9375	10723.842
3553	23.9375	10692.43
3563	23.9375	10640.297
3573	23.9375	10723.842
3583	23.9375	10640.297
3593	23.9375	10744.828
3603	23.9375	10786.944
3613	23.9375	10723.842
3623	23.9375	10702.887
3633	23.875	10776.404
3643	23.875	10702.887
3653	23.9375	10755.347
3663	24.0	10609.14
3673	24.0	10776.404
3684	23.9375	10692.43
3694	23.9375	10692.43
3704	23.9375	10681.983
3714	23.9375	10723.842
3724	23.9375	10713.365
3734	23.9375	10702.887
3744	23.9375	10808.064
3754	23.9375	10681.983
3764	23.9375	10713.365
3774	23.9375	10723.842
3784	24.0	10723.842
3794	24.0	10786.944
3804	24.0	10671.547
3815	23.9375	10723.842
3825	23.9375	10702.887
3835	23.9375	10681.983
3845	23.9375	10692.43
3855	23.9375	10681.983
3865	23.9375	10640.297
3875	23.9375	10713.365
3885	23.9375	10578.074
3895	23.9375	10681.983
3905	23.9375	10692.43
3915	23.9375	10713.365
3925	23.9375	10713.365
3935	24.0	10671.547
3945	24.0	10681.983
3955	24.0	10671.547
3965	24.0	10629.901
3975	24.0	10692.43
3986	24.0	10692.43
3996	24.0	10744.828
4006	24.0	10681.983
4016	24.0	10661.12
4026	23.9375	10723.842
4036	23.9375	10723.842
4046	23.9375	10681.983
4056	24.0	10723.842
4066	24.0	10681.983
4076	24.0	10776.404
4086	24.0	10640.297
4096	24.0	10681.983
4106	24.0	10681.983
4116	24.0	10681.983
4126	24.0	10640.297
4136	24.0	10640.297
4146	24.0	10723.842
4157	24.0	10557.424
4167	24.0	10640.297
4177	24.0	10650.703
4187	24.0	10640.297
4197	24.0	10629.901
4207	24.0625	10713.365
4217	24.0	10547.108
4227	24.0625	10681.983
4237	24.0625	10557.424
4247	24.0625	10681.983
4257	24.0625	10629.901
4267	24.0625	10640.297
4277	24.0625	10671.547
4287	24.0625	10661.12
4297	24.0625	10609.14
4307	24.125	10619.516
4318	24.125	10640.297
4328	24.25	10464.98
4338	24.1875	10578.074
4348	24.125	10547.108
4358	24.125	10609.14
4368	24.125	10557.424
4378	24.125	10619.516
4388	24.125	10640.297
4398	24.125	10557.424
4408	24.0625	10598.774
4418	24.125	10475.205
4428	24.125	10598.774
4438	24.1875	10661.12
4448	24.125	10434.346
4458	24.125	10495.705
4469	24.125	10578.074
4479	24.125	10588.419
4489	24.0625	10557.424
4499	24.125	10661.12
4509	24.125	10661.12
4519	24.125	10495.705
4529	24.125	10475.205
4539	24.1875	10588.419
4549	24.1875	10547.108
4559	24.125	10629.901
4569	24.0625	10619.516
4579	24.0625	10629.901
4589	24.0625	10557.424
4599	24.0625	10640.297
4609	24.0625	10557.424
4619	24.0625	10588.419
4630	24.0625	10661.12
4640	24.0625	10650.703
4650	24.0625	10671.547
4660	24.0625	10640.297
4670	24.0625	10557.424
4680	24.0625	10671.547
4690	24.0625	10640.297
4700	24.125	10588.419
4710	24.125	10661.12
4720	24.125	10671.547
4730	24.125	10681.983
4740	24.125	10671.547
4750	24.125	10661.12
4760	24.125	10619.516
4770	24.125	10557.424
4781	24.125	10495.705
4791	24.125	10671.547
4801	24.125	10609.14
4811	24.125	10640.297
4821	24.125	10578.074
4831	24.125	10619.516
4841	24.125	10536.804
4851	24.125	10619.516
4861	24.125	10629.901
4871	24.125	10681.983
4881	24.125	10619.516
4891	24.125	10536.804
4901	24.125	10629.901
4911	24.125	10692.43
4922	24.125	10661.12
4932	24.125	10629.901
4942	24.125	10619.516
4952	24.0625	10681.983
4962	24.125	10598.774
4972	24.0625	10640.297
4982	24.0625	10692.43
4992	24.0625	10640.297
5002	24.0625	10702.887
5012	24.0625	10723.842
5022	24.0625	10640.297
5032	24.125	10588.419
5042	24.0625	10671.547
5052	24.0625	10713.365
5063	24.125	10713.365
5073	24.125	10671.547
5083	24.125	10629.901
5093	24.125	10640.297
5103	24.125	10692.43
5113	24.125	10713.365
5123	24.125	10526.509
5133	24.1875	10640.297
5143	24.1875	10661.12
5153	24.125	10744.828
5163	24.125	10671.547
5173	24.125	10744.828
5183	24.125	10723.842
5193	24.125	10598.774
5204	24.125	10744.828
5214	24.125	10598.774
5224	24.125	10588.419
5234	24.125	10723.842
5244	24.125	10692.43
5254	24.1875	10619.516
5264	24.1875	10702.887
5274	24.125	10650.703
5284	24.125	10547.108
5294	24.125	10671.547
5304	24.1875	10619.516
5314	24.125	10661.12
5324	24.1875	10702.887
5335	24.1875	10661.12
5345	24.1875	10640.297
5355	24.1875	10516.234
5365	24.1875	10681.983
5375	24.1875	10619.516
5385	24.25	10557.424
5395	24.1875	10495.705
5405	24.1875	10619.516
5415	24.25	10578.074
5425	24.25	10640.297
5435	24.1875	10692.43
5445	24.1875	10609.14
5455	24.1875	10516.234
5465	24.125	10629.901
5476	24.0625	10744.828
5486	24.0625	10681.983
5496	24.125	10629.901
5506	24.1875	10671.547
5516	24.1875	10629.901
5526	24.1875	10619.516
5536	24.25	10629.901
5546	24.25	10547.108
5556	24.1875	10671.547
5566	24.1875	10702.887
5576	24.1875	10629.901
5586	24.1875	10578.074
5597	24.1875	10629.901
5607	24.125	10588.419
5617	24.125	10671.547
5627	24.125	10640.297
5637	24.0625	10681.983
5647	24.125	10609.14
5657	24.0625	10640.297
5667	24.0625	10619.516
5677	24.125	10598.774
5687	24.125	10609.14
5697	24.125	10640.297
5707	24.125	10744.828
5717	24.125	10557.424
5727	24.125	10547.108
5738	24.0625	10505.959
5748	24.125	10629.901
5758	24.125	10619.516
5768	24.125	10516.234
5778	24.125	10619.516
5788	24.125	10661.12
5798	24.1875	10619.516
5808	24.1875	10588.419
5818	24.1875	10661.12
5828	24.125	10588.419
5838	24.125	10588.419
5848	24.125	10671.547
5858	24.125	10619.516
5868	24.125	10629.901
5878	24.125	10702.887
5888	24.125	10661.12
5898	24.125	10650.703
5909	24.125	10640.297
5919	24.125	10609.14
5929	24.125	10619.516
5939	24.125	10681.983
5949	24.125	10629.901
5959	24.125	10516.234
5969	24.125	10640.297
5979	24.125	10640.297
5989	24.0625	10588.419
5999	24.0625	10588.419
6009	24.0625	10692.43
6019	24.0625	10619.516
6029	24.0625	10661.12
6039	24.125	10671.547
6049	24.125	10629.901
6059	24.0625	10681.983
6069	24.125	10723.842
6080	24.0625	10629.901
6090	24.0	10578.074
6100	24.0	10629.901
6110	24.0625	10640.297
6120	24.0625	10755.347
6130	24.125	10619.516
6140	24.125	10671.547
6150	24.125	10588.419
6160	24.125	10640.297
6170	24.0625	10681.983
6180	24.125	10505.959
6190	24.125	10609.14
6200	24.125	10516.234
6210	24.125	10578.074
6220	24.125	10629.901
6230	24.125	10598.774
6241	24.0625	10671.547
6251	24.125	10526.509
6261	24.125	10557.424
6271	24.125	10557.424
6281	24.125	10588.419
6291	24.125	10598.774
6301	24.0625	10640.297
6311	24.125	10588.419
6321	24.125	10609.14
6331	24.0625	10526.509
6341	24.0625	10629.901
6351	24.125	10629.901
6361	24.125	10619.516
6371	24.125	10598.774
6381	24.125	10681.983
6392	24.1875	10495.705
6402	24.125	10588.419
6412	24.1875	10526.509
6422	24.1875	10547.108
6432	24.125	10598.774
6442	24.125	10578.074
6452	24.125	10547.108
6462	24.125	10609.14
6472	24.0625	10516.234
6482	24.0625	10681.983
6492	24.0625	10609.14
6502	24.125	10557.424
6512	24.125	10609.14
6522	24.125	10702.887
6532	24.125	10609.14
6542	24.125	10485.449
6553	24.125	10588.419
6563	24.125	10536.804
6573	24.125	10671.547
6583	24.125	10475.205
6593	24.125	10609.14
6603	24.125	10661.12
6613	24.125	10578.074
6623	24.1875	10598.774
6633	24.125	10629.901
6643	24.0625	10619.516
6653	24.0625	10516.234
6663	24.125	10629.901
6673	24.0625	10619.516
6683	24.0625	10692.43
6694	24.0625	10609.14
6704	24.125	10516.234
6714	24.125	10640.297
6724	24.125	10629.901
6734	24.125	10588.419
6744	24.125	10609.14
6754	24.125	10692.43
6764	24.125	10609.14
6774	24.125	10547.108
6784	24.125	10464.98
6794	24.125	10598.774
6804	24.125	10598.774
6814	24.1875	10578.074
6824	24.1875	10557.424
6834	24.25	10475.205
6845	24.25	10578.074
6855	24.1875	10526.509
6865	24.1875	10598.774
6875	24.1875	10557.424
6885	24.25	10598.774
6895	24.25	10557.424
6905	24.125	10536.804
6915	24.1875	10516.234
6925	24.1875	10578.074
6935	24.1875	10536.804
6945	24.1875	10578.074
6955	24.125	10536.804
6965	24.1875	10640.297
6975	24.125	10557.424
6986	24.125	10650.703
6996	24.1875	10547.108
7006	24.1875	10536.804
7016	24.1875	10516.234
7026	24.1875	10609.14
7036	24.1875	10516.234
7046	24.1875	10557.424
7056	24.1875	10526.509
7066	24.1875	10536.804
7076	24.1875	10526.509
7086	24.1875	10444.551
7096	24.1875	10464.98
7106	24.1875	10454.756
7117	24.1875	10536.804
7127	24.125	10536.804
7137	24.125	10578.074
7147	24.125	10629.901
7157	24.125	10588.419
7167	24.1875	10536.804
7177	24.1875	10505.959
7187	24.1875	10495.705
7197	24.1875	10578.074
7207	24.1875	10526.509
7217	24.1875	10578.074
7227	24.1875	10444.551
7237	24.1875	10557.424
7247	24.1875	10526.509
7258	24.1875	10526.509
7268	24.1875	10547.108
7278	24.1875	10495.705
7288	24.1875	10444.551
7298	24.1875	10516.234
7308	24.1875	10505.959
7318	24.25	10505.959
7328	24.25	10485.449
7338	24.1875	10547.108
7348	24.1875	10505.959
7358	24.1875	10505.959
7368	24.25	10434.346
7379	24.25	10536.804
7389	24.25	10495.705
7399	24.25	10475.205
7409	24.25	10505.959
7419	24.25	10547.108
7429	24.1875	10609.14
7439	24.25	10526.509
7449	24.25	10495.705
7459	24.25	10495.705
7469	24.25	10393.656
7479	24.3125	10526.509
7489	24.3125	10588.419
7499	24.3125	10383.502
7510	24.3125	10383.502
7520	24.3125	10557.424
7530	24.3125	10434.346
7540	24.3125	10454.756
7550	24.3125	10495.705
7560	24.3125	10464.98
7570	24.3125	10495.705
7580	24.3125	10495.705
7590	24.3125	10434.346
7600	24.3125	10434.346
7610	24.3125	10444.551
7620	24.3125	10475.205
7630	24.3125	10434.346
7640	24.3125	10353.115
7650	24.375	10383.502
7660	24.3125	10516.234
7671	24.3125	10495.705
7681	24.375	10434.346
7691	24.375	10464.98
7701	24.375	10413.977
7711	24.375	10464.98
7721	24.375	10413.977
7731	24.375	10475.205
7741	24.375	10383.502
7751	24.375	10464.98
7761	24.375	10322.819
7771	24.375	10393.656
7781	24.375	10424.161
7791	24.375	10454.756
7801	24.375	10434.346
7811	24.375	10516.234
7821	24.375	10444.551
7831	24.375	10424.161
7842	24.4375	10434.346
7852	24.4375	10413.977
7862	24.4375	10424.161
7872	24.4375	10383.502
7882	24.4375	10343.01
7892	24.4375	10444.551
7902	24.4375	10485.449
7912	24.375	10393.656
7922	24.4375	10363.241
7932	24.4375	10413.977
7942	24.4375	10312.743
7952	24.4375	10302.677
7962	24.4375	10454.756
7972	24.4375	10454.756
7982	24.5	10282.564
7993	24.5	10413.977
8003	24.5	10302.677
8013	24.5	10393.656
8023	24.5	10363.241
8033	24.5	10272.527
8043	24.5	10454.756
8053	24.5	10393.656
8063	24.5	10393.656
8073	24.5	10353.115
8083	24.5	10393.656
8093	24.5	10363.241
8103	24.5	10262.501
8113	24.5	10383.502
8123	24.4375	10434.346
8133	24.4375	10434.346
8143	24.4375	10434.346
8154	24.4375	10413.977
8164	24.4375	10434.346
8174	24.4375	10383.502
8184	24.5	10282.564
8194	24.5	10393.656
8204	24.5	10464.98
8214	24.4375	10454.756
8224	24.4375	10393.656
8234	24.4375	10444.551
8244	24.4375	10424.161
8254	24.5	10424.161
8264	24.5	10464.98
8274	24.5	10383.502
8284	24.5	10454.756
8294	24.5	10424.161
8305	24.5	10454.756
8315	24.4375	10485.449
8325	24.5	10475.205
8335	24.5	10393.656
8345	24.5	10353.115
8355	24.5	10292.611
8365	24.5	10454.756
8375	24.5	10464.98
8385	24.4375	10444.551
8395	24.5	10464.98
8405	24.5	10393.656
8415	24.5	10292.611
8425	24.5	10292.611
8435	24.5625	10312.743
8445	24.5625	10302.677
8456	24.5625	10383.502
8466	24.5625	10343.01
8476	24.5	10282.564
8486	24.5	10434.346
8496	24.5625	10363.241
8506	24.5625	10353.115
8516	24.5	10424.161
8526	24.5	10393.656
8536	24.5	10464.98
8546	24.4375	10343.01
8556	24.5	10475.205
8566	24.5	10434.346
8576	24.5	10475.205
8586	24.5	10332.914
8596	24.5	10475.205
8607	24.5	10475.205
8617	24.4375	10424.161
8627	24.4375	10485.449
8637	24.4375	10434.346
8647	24.5	10424.161
8657	24.5625	10454.756
8667	24.5625	10393.656
8677	24.5	10393.656
8687	24.5625	10444.551
8697	24.5625	10353.115
0	24.5	10393.656
10	24.5	10353.115
20	24.4375	10547.108
30	24.375	10536.804
40	24.375	10536.804
50	24.4375	10526.509
60	24.4375	10475.205
70	24.4375	10547.108
80	24.5	10526.509
90	24.5	10557.424
100	24.5	10434.346
110	24.5	10495.705
120	24.4375	10434.346
130	24.5	10363.241
140	24.4375	10413.977
150	24.375	10495.705
160	24.375	10495.705
170	24.375	10516.234
180	24.375	10434.346
190	24.375	10547.108
200	24.4375	10557.424
210	24.4375	10505.959
220	24.4375	10495.705
230	24.4375	10434.346
240	24.375	10495.705
250	24.4375	10495.705
260	24.4375	10588.419
270	24.4375	10495.705
280	24.4375	10495.705
290	24.375	10516.234
300	24.4375	10495.705
310	24.4375	10578.074
321	24.5	10343.01
331	24.4375	10475.205
341	24.375	10526.509
351	24.375	10557.424
361	24.3125	10516.234
371	24.3125	10547.108
381	24.3125	10444.551
391	24.3125	10464.98
401	24.3125	10464.98
411	24.3125	10495.705
421	24.3125	10536.804
431	24.375	10526.509
441	24.375	10557.424
451	24.375	10588.419
461	24.4375	10505.959
471	24.4375	10434.346
482	24.4375	10424.161
492	24.4375	10609.14
502	24.375	10557.424
512	24.4375	10393.656
522	24.375	10475.205
532	24.375	10516.234
542	24.375	10444.551
552	24.4375	10495.705
562	24.375	10536.804
572	24.375	10547.108
582	24.375	10598.774
592	24.375	10557.424
602	24.375	10485.449
612	24.375	10557.424
622	24.3125	10454.756
632	24.3125	10598.774
643	24.375	10547.108
653	24.375	10547.108
663	24.375	10424.161
673	24.375	10475.205
683	24.375	10557.424
693	24.375	10619.516
703	24.375	10516.234
713	24.4375	10516.234
723	24.4375	10485.449
733	24.4375	10495.705
743	24.4375	10454.756
753	24.4375	10557.424
763	24.375	10516.234
773	24.3125	10475.205
784	24.3125	10557.424
794	24.3125	10547.108
804	24.375	10424.161
814	24.375	10505.959
824	24.375	10505.959
834	24.3125	10557.424
844	24.375	10495.705
854	24.375	10475.205
864	24.375	10557.424
874	24.3125	10557.424
884	24.3125	10464.98
894	24.3125	10578.074
904	24.3125	10557.424
914	24.3125	10536.804
924	24.25	10619.516
934	24.25	10598.774
945	24.3125	10609.14
955	24.3125	10505.959
965	24.25	10609.14
975	24.3125	10619.516
985	24.3125	10671.547
995	24.25	10547.108
1005	24.25	10536.804
1015	24.3125	10547.108
1025	24.25	10557.424
1035	24.3125	10588.419
1045	24.3125	10557.424
1055	24.25	10609.14
1065	24.25	10505.959
1075	24.25	10434.346
1086	24.25	10661.12
1096	24.3125	10588.419
1106	24.25	10588.419
1116	24.3125	10475.205
1126	24.3125	10505.959
1136	24.3125	10536.804
1146	24.3125	10536.804
1156	24.25	10547.108
1166	24.25	10557.424
1176	24.25	10557.424
1186	24.25	10619.516
1196	24.25	10619.516
1206	24.25	10619.516
1216	24.25	10526.509
1227	24.3125	10536.804
1237	24.375	10598.774
1247	24.3125	10598.774
1257	24.25	10629.901
1267	24.25	10629.901
1277	24.25	10454.756
1287	24.25	10598.774
1297	24.1875	10526.509
1307	24.1875	10619.516
1317	24.1875	10464.98
1327	24.1875	10495.705
1337	24.1875	10516.234
1347	24.25	10598.774
1357	24.25	10578.074
1368	24.25	10578.074
1378	24.1875	10640.297
1388	24.1875	10609.14
1398	24.125	10640.297
1408	24.125	10619.516
1418	24.125	10671.547
1428	24.125	10661.12
1438	24.125	10744.828
1448	24.1875	10692.43
1458	24.1875	10671.547
1468	24.1875	10619.516
1478	24.1875	10661.12
1488	24.125	10671.547
1498	24.1875	10692.43
1509	24.25	10557.424
1519	24.1875	10609.14
1529	24.1875	10671.547
1539	24.125	10619.516
1549	24.125	10681.983
1559	24.125	10505.959
1569	24.125	10671.547
1579	24.125	10547.108
1589	24.1875	10692.43
1599	24.1875	10702.887
1609	24.125	10557.424
1619	24.125	10692.43
1629	24.125	10640.297
1640	24.125	10755.347
1650	24.0625	10713.365
1660	24.0625	10692.43
1670	24.0625	10776.404
1680	24.0625	10702.887
1690	24.0625	10671.547
1700	24.0625	10661.12
1710	24.125	10619.516
1720	24.125	10629.901
1730	24.125	10692.43
1740	24.125	10640.297
1750	24.125	10692.43
1760	24.125	10640.297
1771	24.125	10661.12
1781	24.125	10650.703
1791	24.0625	10702.887
1801	24.0625	10661.12
1811	24.125	10713.365
1821	24.0625	10536.804
1831	24.0625	10681.983
1841	24.0625	10640.297
1851	24.125	10598.774
1861	24.125	10671.547
1871	24.0625	10661.12
1881	24.0625	10723.842
1891	24.0625	10640.297
1902	24.0625	10640.297
1912	24.0625	10609.14
1922	24.0625	10681.983
1932	24.125	10744.828
1942	24.0625	10671.547
1952	24.0625	10702.887
1962	24.0625	10629.901
1972	24.0625	10755.347
1982	24.0625	10713.365
1992	24.0625	10765.865
2002	24.0625	10692.43
2012	24.0625	10702.887
2022	24.0625	10723.842
2032	24.0625	10702.887
2042	24.0625	10692.43
2053	24.0625	10713.365
2063	24.0625	10609.14
2073	24.0625	10536.804
2083	24.0625	10723.842
2093	24.125	10692.43
2103	24.125	10671.547
2113	24.125	10640.297
2123	24.1875	10671.547
2133	24.25	10505.959
2143	24.1875	10692.43
2153	24.1875	10629.901
2163	24.1875	10661.12
2173	24.125	10619.516
2183	24.125	10557.424
2193	24.125	10713.365
2203	24.1875	10598.774
2213	24.125	10640.297
2224	24.1875	10609.14
2234	24.25	10629.901
2244	24.25	10475.205
0	24.25	10516.234
10	24.25	10619.516
20	24.3125	10526.509
30	24.3125	10516.234
40	24.25	10485.449
50	24.25	10505.959
60	24.25	10557.424
70	24.25	10516.234
80	24.25	10536.804
90	24.1875	10588.419
100	24.1875	10485.449
110	24.1875	10588.419
120	24.1875	10547.108
130	24.1875	10578.074
140	24.1875	10557.424
150	24.1875	10578.074
160	24.1875	10629.901
170	24.1875	10557.424
180	24.1875	10661.12
190	24.125	10505.959
200	24.125	10609.14
210	24.125	10505.959
220	24.125	10547.108
230	24.125	10619.516
241	24.125	10526.509
251	24.125	10526.509
261	24.0625	10619.516
271	24.0625	10640.297
281	24.0625	10640.297
291	24.0625	10640.297
301	24.0625	10755.347
311	24.0625	10723.842
321	24.0625	10681.983
331	24.125	10578.074
341	24.0625	10588.419
351	24.0625	10598.774
361	24.0625	10744.828
371	24.125	10797.504
381	24.0625	10557.424
391	24.0625	10713.365
402	24.0625	10681.983
412	24.0625	10829.225
422	24.0625	10692.43
432	24.0625	10671.547
442	24.0625	10671.547
452	24.125	10681.983
462	24.125	10671.547
472	24.125	10765.865
482	24.0625	10671.547
492	24.0625	10661.12
502	24.0625	10557.424
512	24.125	10619.516
522	24.125	10640.297
532	24.125	10692.43
542	24.125	10776.404
553	24.125	10681.983
563	24.0625	10702.887
573	24.0625	10713.365
583	24.0625	10723.842
593	24.0625	10692.43
603	24.0625	10681.983
613	24.0625	10713.365
623	24.0625	10671.547
633	24.0625	10629.901
643	24.0625	10808.064
653	24.0625	10713.365
663	24.0625	10713.365
673	24.0625	10702.887
683	24.0625	10681.983
693	24.0	10671.547
704	24.0	10723.842
714	24.0	10829.225
724	24.0	10640.297
734	24.0	10744.828
744	24.0625	10755.347
754	24.0625	10713.365
764	24.0625	10702.887
774	24.0625	10755.347
784	24.0625	10702.887
794	24.0625	10702.887
804	24.0625	10598.774
814	24.0625	10713.365
824	24.0625	10692.43
834	24.0625	10702.887
844	24.0625	10723.842
855	24.0	10723.842
865	24.0625	10692.43
875	24.0625	10681.983
885	24.0	10723.842
895	24.0	10692.43
905	24.0625	10681.983
915	24.0625	10681.983
925	24.0625	10681.983
935	24.0625	10713.365
945	24.0	10723.842
955	24.0	10640.297
965	24.0	10776.404
975	24.0	10702.887
985	24.0	10723.842
995	24.0	10702.887
1006	24.0	10776.404
1016	24.0	10829.225
1026	24.0	10681.983
1036	24.0	10755.347
1046	24.0	10609.14
1056	24.0	10765.865
1066	24.0	10692.43
1076	24.0	10786.944
1086	24.0	10640.297
1096	24.0	10723.842
1106	24.0	10629.901
1116	24.0	10713.365
1127	24.0	10765.865
1137	24.0	10723.842
1147	24.0	10776.404
1157	24.0	10723.842
1167	24.0	10609.14
1177	24.0	10702.887
1187	24.0	10765.865
1197	24.0	10765.865
1207	23.9375	10786.944
1217	24.0	10713.365
1227	23.9375	10723.842
1237	23.9375	10723.842
1247	23.9375	10776.404
1257	23.9375	10723.842
1268	23.9375	10755.347
1278	23.9375	10755.347
1288	23.9375	10671.547
1298	23.9375	10786.944
1308	23.9375	10702.887
1318	23.9375	10861.05
1328	23.9375	10808.064
1338	23.9375	10744.828
1348	24.0	10713.365
1358	24.0625	10713.365
1368	24.0625	10681.983
1378	24.0	10723.842
1388	24.0	10776.404
1398	24.0	10692.43
1409	24.0	10702.887
1419	24.0625	10629.901
1429	24.0	10713.365
1439	24.0	10702.887
