time	temperature	resistance
0	27.375	9198.211
1	27.5	9090.832
2	27.6875	8993.45
3	27.8125	8958.286
4	28.0	8818.921
5	28.125	8810.279
6	28.25	8750.0
7	28.4375	8707.18
8	28.5625	8521.083
9	28.6875	8579.892
10	28.8125	8462.645
11	28.9375	8412.843
12	29.125	8346.863
13	29.25	8322.247
14	29.375	8281.355
15	29.5	8183.961
16	29.625	8087.60436
17	29.75	8087.60436
18	29.875	7913.5645
19	30.0	7937.101
20	30.125	7897.9128
21	30.25	7882.284
22	30.4375	7789.086
23	30.5	7727.019
24	30.625	7673.47
25	30.8125	7635.4232
26	30.9375	7635.4232
27	31.0	7559.8152
28	31.125	7492.327
29	31.25	7447.617
30	31.375	7395.751
31	31.5	7351.533
32	31.625	7234.7152
34	31.75	7220.21936
35	31.875	7176.8948
36	32.125	7205.754
37	32.25	7140.949
38	32.375	7076.633
39	32.4375	7034.0216
40	32.5625	7005.73636
41	32.6875	6921.4296
42	32.8125	6956.456
43	32.9375	6858.744
44	33.0625	6803.41568
45	33.125	6707.456
46	33.25	6762.159
47	33.375	6748.4492
48	33.4375	6673.448
49	33.625	6538.801
51	33.6875	6605.854
52	33.9375	6512.135
53	34.0	6532.126
54	34.125	6525.4576
55	34.25	6445.8364
56	34.3125	6406.3084
57	34.4375	6380.067
58	34.5	6353.9024
59	34.625	6334.336
60	34.75	6308.323
61	34.8125	6275.92
62	34.9375	6192.277
63	35.0	6211.505
64	35.125	6166.712
65	35.1875	6147.5932
67	35.3125	6090.498
68	35.4375	6077.8668
69	35.5	6071.5576
70	35.6875	6033.8124
71	35.75	6002.493
72	35.875	6002.493
73	35.9375	5977.1304
74	36.0625	5989.6044
75	36.125	5915.049
76	36.1875	5890.3536
77	36.3125	5878.036
78	36.375	5792.3276
79	36.5	5822.834
80	36.5625	5798.418
81	36.625	5792.3276
83	36.6875	5701.5196
84	36.8125	5731.6732
85	36.875	5653.515
86	37.0	5725.631
87	37.125	5701.5196
88	37.1875	5576.13
89	37.25	5653.515
90	37.3125	5534.7732
91	37.4375	5605.8024
92	37.5	5582.052
93	37.5625	5528.8856
94	37.625	5546.5676
95	37.6875	5511.245
96	37.75	5464.394
97	37.8125	5522.999
98	37.875	5435.2524
100	37.9375	5481.927
101	38.0625	5388.863
102	38.1875	5441.0712
103	38.25	5302.62
104	38.3125	5360.0064
105	38.375	5325.522
106	38.4375	5319.791
107	38.5	5302.62
108	38.5625	5228.6568
109	38.625	5308.338
110	38.6875	5222.995
111	38.75	5183.496
112	38.8125	5189.125
113	38.8125	5155.4052
115	38.9375	5194.76
116	38.9375	5166.6276
117	39.0	5133.01
118	39.125	5155.4052
119	39.1875	5116.2516
120	39.25	5144.1976
121	39.3125	5077.303
122	39.3125	5049.605
123	39.375	5093.9728
124	39.4375	5038.551
125	39.5	5071.7524
126	39.5625	5022.005
127	39.5625	5049.605
128	39.625	5005.4948
129	39.6875	5010.9968
131	39.75	4994.5084
132	39.8125	5005.4948
133	39.875	4972.584
134	39.9375	4923.4852
135	40.0	4939.8192
136	40.0	4869.3096
137	40.0625	4918.051
138	40.125	4901.77
139	40.125	4836.9948
140	40.1875	4863.9164
141	40.25	4836.9948
142	40.25	4885.5244
143	40.3125	4826.254
144	40.375	4863.9164
146	40.375	4880.1132
147	40.4375	4836.9948
148	40.5	4815.528
149	40.5625	4820.8852
150	40.5625	4804.8164
151	40.625	4783.442
152	40.625	4783.442
153	40.6875	4751.4976
154	40.75	4735.5736
155	40.75	4735.5736
156	40.8125	4740.879
157	40.8125	4666.9824
158	40.875	4709.115
159	40.875	4661.729
161	40.9375	4735.5736
162	40.9375	4709.115
163	41.0	4709.115
164	41.0625	4682.751
165	41.0625	4666.9824
166	41.125	4682.751
167	41.125	4656.4816
168	41.1875	4666.9824
169	41.1875	4646.004
170	41.25	4656.4816
171	41.25	4609.4356
172	41.3125	4547.17
173	41.3125	4599.02
175	41.375	4552.3376
176	41.375	4583.428
177	41.4375	4640.7656
178	41.4375	4583.428
179	41.5	4604.2248
180	41.5	4541.683
181	41.5	4578.2384
182	41.5625	4547.17
183	41.5625	4541.683
184	41.625	4562.686
185	41.625	4562.686
186	41.625	4541.683
187	41.6875	4531.3648
189	41.6875	4573.05
190	41.75	4464.6532
191	41.75	4510.7724
192	41.8125	4526.212
193	41.8125	4515.916
194	41.875	4510.7724
195	41.875	4500.4984
196	41.875	4500.4984
197	41.875	4490.2392
198	41.9375	4413.75
199	41.9375	4500.4984
200	41.9375	4418.8248
201	42.0	4474.8756
203	42.0	4449.3432
204	42.0	4449.3432
205	42.0625	4393.4908
206	42.0625	4449.3432
207	42.0625	4454.442
208	42.125	4449.3432
209	42.125	4418.8248
210	42.125	4459.547
211	42.125	4449.3432
212	42.1875	4408.6808
213	42.1875	4358.17
214	42.1875	4439.158
215	42.25	4408.6808
217	42.25	4353.1396
218	42.25	4408.6808
219	42.3125	4378.3324
220	42.3125	4378.3324
221	42.3125	4378.3324
222	42.3125	4378.3324
223	42.375	4393.4908
224	42.375	4398.551
225	42.375	4398.551
226	42.375	4363.206
227	42.375	4338.067
228	42.4375	4388.4364
229	42.4375	4358.17
230	42.4375	4338.067
231	42.5	4338.067
233	42.5	4288.0504
234	42.5	4333.0512
235	42.5	4348.111
236	42.5	4328.033
237	42.5	4328.033
238	42.5625	4328.033
239	42.5625	4353.1396
240	42.5625	4353.1396
241	42.5625	4328.033
242	42.5	4333.0512
243	42.375	4368.2436
244	42.25	4368.2436
245	42.0625	4393.4908
246	42.0	4449.3432
247	41.9375	4413.75
248	41.8125	4368.2436
249	41.75	4449.3432
251	41.75	4444.25
252	41.625	4485.1124
253	41.5625	4490.2392
254	41.4375	4500.4984
255	41.375	4536.523
256	41.3125	4474.8756
257	41.25	4541.683
258	41.1875	4485.1124
259	41.125	4557.511
260	41.0	4578.2384
261	40.9375	4583.428
262	40.875	4578.2384
263	40.8125	4661.729
264	40.75	4599.02
265	40.6875	4682.751
266	40.5625	4666.9824
267	40.5	4656.4816
269	40.4375	4661.729
270	40.375	4688.0196
271	40.1875	4724.982
272	40.125	4746.1856
273	40.0625	4730.275
274	40.0	4794.124
275	39.875	4709.115
276	39.8125	4751.4976
277	39.75	4820.8852
278	39.625	4826.254
279	39.5625	4831.619
280	39.5	4836.9948
281	39.4375	4869.3096
282	39.3125	4939.8192
283	39.25	4912.618
285	39.1875	4961.6464
286	39.125	4956.184
287	39.0	4967.1144
288	38.875	4983.541
289	38.75	4961.6464
290	38.6875	5027.5156
291	38.625	4961.6464
292	38.5	4989.019
293	38.4375	5005.4948
294	38.375	5071.7524
295	38.3125	5093.9728
296	38.1875	5116.2516
297	38.125	5138.5984
298	38.0625	5144.1976
299	37.9375	5099.533
300	37.875	5177.8688
302	37.8125	5206.0424
303	37.625	5217.34
304	37.5625	5257.0216
305	37.5	5268.3944
306	37.375	5257.0216
307	37.3125	5319.791
308	37.25	5268.3944
309	37.125	5314.0616
310	37.0	5342.7468
311	36.9375	5337.002
312	36.875	5360.0064
313	36.8125	5354.249
314	36.8125	5406.2256
315	36.8125	5412.0232
317	36.8125	5406.2256
318	36.75	5371.5356
319	36.75	5499.5052
320	36.6875	5481.927
321	36.625	5487.7804
322	36.625	5487.7804
323	36.625	5493.6396
324	36.5625	5458.5556
325	36.5625	5493.6396
326	36.6875	5505.372
327	36.75	5558.381
328	36.75	5441.0712
329	36.8125	5487.7804
330	36.875	5499.5052
332	36.9375	5464.394
333	36.9375	5452.723
334	37.0	5458.5556
335	37.0625	5458.5556
336	37.125	5435.2524
337	37.125	5464.394
338	37.25	5417.8228
339	37.3125	5446.8964
340	37.375	5446.8964
341	37.5	5406.2256
342	37.5625	5371.5356
343	37.6875	5383.079
344	37.8125	5365.7704
345	37.9375	5354.249
346	38.0	5360.0064
348	38.125	5319.791
349	38.25	5308.338
350	38.5	5296.904
351	38.625	5234.3192
352	38.75	5217.34
353	38.875	5222.995
354	39.0	5144.1976
355	39.1875	5144.1976
356	39.3125	5149.799
357	39.4375	5138.5984
358	39.5625	5044.0748
359	39.6875	5093.9728
360	39.8125	5033.032
361	39.9375	5044.0748
363	40.0625	5022.005
364	40.1875	4983.541
365	40.4375	4999.998
366	40.5625	4967.1144
367	40.625	4912.618
368	40.75	4918.051
369	40.875	4912.618
370	41.0	4863.9164
371	41.0625	4815.528
372	41.1875	4794.124
373	41.3125	4836.9948
374	41.375	4794.124
375	41.5	4778.1076
377	41.5625	4746.1856
378	41.6875	4815.528
379	41.875	4788.782
380	41.9375	4746.1856
381	42.0	4709.115
382	42.0625	4688.0196
383	42.125	4703.837
384	42.25	4666.9824
385	42.3125	4619.865
386	42.375	4666.9824
387	42.5	4651.2396
388	42.5	4562.686
389	42.4375	4625.085
390	42.6875	4583.428
392	42.75	4583.428
393	42.8125	4541.683
394	42.9375	4567.867
395	43.0	4583.428
396	43.0	4552.3376
397	43.125	4500.4984
398	43.125	4521.061
399	43.1875	4500.4984
400	43.25	4531.3648
401	43.3125	4500.4984
402	43.375	4500.4984
403	43.4375	4474.8756
404	43.4375	4459.547
406	43.5	4485.1124
407	43.5625	4408.6808
408	43.625	4434.0684
409	43.6875	4459.547
410	43.75	4439.158
411	43.75	4373.2876
412	43.8125	4418.8248
413	43.875	4403.613
414	43.875	4403.613
415	43.9375	4378.3324
416	43.9375	4408.6808
417	44.0	4358.17
418	44.0	4338.067
420	44.0625	4378.3324
421	44.125	4308.016
422	44.125	4313.0148
423	44.1875	4378.3324
424	44.25	4338.067
425	44.25	4323.0252
426	44.3125	4353.1396
427	44.3125	4368.2436
428	44.375	4333.0512
429	44.375	4288.0504
430	44.4375	4323.0252
431	44.4375	4248.286
432	44.5	4218.612
434	44.5	4268.14
435	44.5625	4248.286
436	44.625	4288.0504
437	44.625	4258.2076
438	44.625	4253.248
439	44.6875	4213.678
440	44.75	4243.334
441	44.75	4189.057
442	44.8125	4213.678
443	44.8125	4288.0504
444	44.875	4218.612
445	44.875	4228.4884
446	44.875	4218.612
447	44.9375	4213.678
448	44.9375	4233.435
449	45.0	4179.233
450	45.0	4203.8204
452	45.0625	4179.233
453	45.0625	4193.9736
454	45.125	4179.233
455	45.1875	4193.9736
456	45.25	4198.8964
457	45.25	4174.3256
458	45.25	4169.424
459	45.3125	4203.8204
460	45.3125	4149.8432
461	45.3125	4125.4452
462	45.375	4144.9584
463	45.375	4164.524
464	45.4375	4125.4452
465	45.4375	4130.319
466	45.5	4159.626
467	45.5	4140.075
469	45.5	4149.8432
470	45.5	4101.1284
471	45.5625	4091.4284
472	45.625	4140.075
473	45.625	4072.0624
474	45.625	4101.1284
475	45.625	4130.319
476	45.6875	4130.319
477	45.6875	4091.4284
478	45.6875	4091.4284
479	45.75	4125.4452
480	45.75	4125.4452
481	45.75	4120.5736
482	45.75	4101.1284
483	45.8125	4047.929
485	45.8125	4091.4284
486	45.8125	4096.2772
487	45.8125	4023.8808
488	45.875	4120.5736
489	45.875	4091.4284
490	45.875	4081.73984
491	45.875	4009.4932
492	45.875	4052.7496
493	45.875	4076.90016
494	45.9375	4047.929
495	45.9375	4091.4284
496	45.9375	4014.2832
497	45.9375	4081.73984
498	45.9375	4057.572
499	45.9375	4047.929
500	46.0	4052.7496
502	46.0	4023.8808
503	46.0	3976.03
504	46.0	4043.114
505	46.0	3966.49784
506	46.0	3999.91468
507	46.0	4043.114
508	46.0	4062.4004
509	46.0625	4004.701
510	46.0625	4023.8808
511	46.0625	4009.4932
512	46.0625	4038.301
513	46.0625	4009.4932
514	46.0625	4023.8808
515	46.0625	4038.301
516	46.0625	4052.7496
518	46.0625	3937.9844
519	46.0625	4023.8808
520	46.0625	4014.2832
521	46.125	3961.738
522	46.125	3976.03
523	46.125	4023.8808
524	46.125	3985.5744
525	46.125	3980.7996
526	46.125	3999.91468
527	46.125	3956.9804
528	46.125	4004.701
529	46.125	4004.701
530	46.125	3985.5744
531	46.125	3980.7996
532	46.125	3923.769
534	46.125	3976.03
535	46.125	3999.91468
536	46.125	3985.5744
537	46.125	3942.7266
538	46.125	3980.7996
539	46.125	3985.5744
540	46.125	3985.5744
541	46.125	3971.2632
542	46.125	3976.03
543	46.125	3976.03
544	46.125	3956.9804
545	46.125	3971.2632
546	46.125	3937.9844
547	46.125	3985.5744
548	46.125	3980.7996
550	46.125	3937.9844
551	46.125	3980.7996
552	46.125	3937.9844
553	46.125	3942.7266
554	46.125	3947.47468
555	46.125	3980.7996
556	46.125	3980.7996
557	46.125	3900.1424
558	46.125	3956.9804
559	46.125	3976.03
560	46.125	3966.49784
561	46.125	4009.4932
562	46.125	3904.86132
563	46.125	3937.9844
565	46.125	3933.24
566	46.125	3900.1424
567	46.125	3942.7266
568	46.125	3980.7996
569	46.125	3976.03
570	46.125	3904.86132
571	46.125	3933.24
572	46.125	3937.9844
573	46.0625	3923.769
574	46.0625	3966.49784
575	46.0625	3937.9844
576	46.0625	3990.3512
577	46.0625	3961.738
579	46.0625	3966.49784
580	46.0625	3937.9844
581	46.0625	3928.50532
582	46.0625	3923.769
583	46.0625	3942.7266
584	46.0625	3947.47468
585	46.0625	3980.7996
586	46.0625	3947.47468
587	46.0625	3933.24
588	46.0625	3886.00416
589	46.0625	3956.9804
590	46.0	3976.03
591	46.0625	3919.038
592	46.0	3886.00416
594	46.0	3985.5744
595	46.0	3961.738
596	46.0	3942.7266
597	46.0	3947.47468
598	46.0	3971.2632
599	46.0	3947.47468
600	46.0	3923.769
601	46.0	3890.7136
602	46.0	3985.5744
603	46.0	3942.7266
604	46.0	3947.47468
605	46.0	3961.738
606	46.0	3904.86132
608	45.9375	3947.47468
609	45.9375	3937.9844
610	45.9375	3919.038
611	45.9375	3923.769
612	45.9375	3933.24
613	45.9375	3971.2632
614	45.9375	3956.9804
615	45.9375	3971.2632
616	45.9375	3923.769
617	45.875	3909.5824
618	45.875	3937.9844
619	45.875	3937.9844
620	45.875	3928.50532
622	45.875	3928.50532
623	45.875	3947.47468
624	45.875	3956.9804
625	45.875	3933.24
626	45.875	3956.9804
627	45.875	3909.5824
628	45.875	3909.5824
629	45.8125	3871.8952
630	45.8125	3928.50532
631	45.8125	3914.30932
632	45.8125	3966.49784
633	45.8125	3933.24
635	45.8125	3933.24
636	45.8125	3923.769
637	45.8125	3966.49784
638	45.8125	3947.47468
639	45.8125	3966.49784
640	45.75	3937.9844
641	45.75	3895.425
642	45.75	3947.47468
643	45.75	3928.50532
644	45.75	3928.50532
645	45.75	3995.13032
646	45.75	3947.47468
647	45.75	3947.47468
648	45.75	3961.738
650	45.75	3937.9844
651	45.6875	3971.2632
652	45.6875	3942.7266
653	45.6875	3937.9844
654	45.6875	3995.13032
655	45.6875	3956.9804
656	45.6875	3942.7266
657	45.6875	3947.47468
658	45.625	3928.50532
659	45.625	3895.425
660	45.625	3933.24
661	45.625	3995.13032
662	45.625	3895.425
663	45.625	3961.738
664	45.625	3933.24
665	45.625	3971.2632
667	45.625	3971.2632
668	45.625	3961.738
669	45.625	3909.5824
670	45.5625	3999.91468
671	45.5625	3900.1424
672	45.5625	3961.738
673	45.5625	3956.9804
674	45.5625	3933.24
675	45.5625	3956.9804
676	45.5625	3985.5744
677	45.5625	3990.3512
678	45.5625	3976.03
679	45.5	3966.49784
680	45.5	3904.86132
681	45.5	3923.769
682	45.5	3947.47468
684	45.5	3999.91468
685	45.5	3971.2632
686	45.5	3976.03
687	45.5	3956.9804
688	45.5	3966.49784
689	45.5	4009.4932
690	45.5	3971.2632
691	45.4375	3923.769
692	45.4375	3956.9804
693	45.4375	3980.7996
694	45.4375	3923.769
695	45.4375	4009.4932
696	45.375	3980.7996
697	45.25	4263.173
698	45.0625	4149.8432
699	44.9375	4154.7332
701	44.875	4135.1944
702	44.8125	4096.2772
703	44.75	4130.319
704	44.625	4169.424
705	44.5625	4120.5736
706	44.5	4101.1284
707	44.5	4174.3256
708	44.4375	4135.1944
709	44.375	4154.7332
710	44.3125	4164.524
711	44.25	4179.233
712	44.1875	4218.612
713	44.125	4233.435
714	44.125	4258.2076
715	44.0625	4283.068
716	44.0	4268.14
718	43.9375	4258.2076
719	43.8125	4278.0876
720	43.8125	4253.248
721	43.75	4278.0876
722	43.6875	4288.0504
723	43.625	4293.038
724	43.5625	4278.0876
725	43.5625	4298.0232
726	43.5	4323.0252
727	43.4375	4318.019
728	43.375	4318.019
729	43.3125	4283.068
730	43.3125	4348.111
731	43.25	4358.17
733	43.1875	4323.0252
734	43.125	4363.206
735	43.0625	4363.206
736	43.0	4388.4364
737	42.9375	4383.384
738	42.875	4408.6808
739	42.875	4418.8248
740	42.8125	4434.0684
741	42.75	4434.0684
742	42.6875	4363.206
743	42.625	4434.0684
744	42.625	4413.75
745	42.5625	4464.6532
746	42.5	4439.158
747	42.5	4485.1124
749	42.4375	4413.75
750	42.375	4490.2392
751	42.3125	4434.0684
752	42.25	4469.7616
753	42.25	4485.1124
754	42.125	4526.212
755	42.125	4474.8756
756	42.0625	4541.683
757	42.0625	4500.4984
758	42.0	4485.1124
759	41.9375	4515.916
760	41.9375	4526.212
761	41.875	4583.428
762	41.8125	4573.05
764	41.8125	4567.867
765	41.75	4578.2384
766	41.6875	4578.2384
767	41.625	4614.6476
768	41.625	4557.511
769	41.5625	4656.4816
770	41.5	4646.004
771	41.5	4651.2396
772	41.4375	4656.4816
773	41.375	4666.9824
774	41.375	4656.4816
775	41.3125	4614.6476
776	41.3125	4656.4816
777	41.25	4709.115
778	41.1875	4724.982
780	41.1875	4698.56
781	41.125	4703.837
782	41.0625	4661.729
783	41.0625	4735.5736
784	41.0	4762.131
785	40.9375	4751.4976
786	40.9375	4783.442
787	40.875	4740.879
788	40.875	4751.4976
789	40.8125	4778.1076
790	40.8125	4794.124
791	40.75	4794.124
792	40.75	4815.528
794	40.6875	4820.8852
795	40.625	4783.442
796	40.5625	4826.254
797	40.5625	4820.8852
798	40.5	4836.9948
799	40.5	4863.9164
800	40.4375	4890.9364
801	40.4375	4863.9164
802	40.375	4804.8164
803	40.375	4896.3508
804	40.3125	4853.1344
805	40.3125	4863.9164
806	40.25	4907.191
807	40.25	4912.618
809	40.1875	4880.1132
810	40.1875	4901.77
811	40.125	4880.1132
812	40.0625	4918.051
813	40.0625	4994.5084
814	40.0625	4961.6464
815	40.0	4994.5084
816	40.0	4989.019
817	39.9375	4999.998
818	39.9375	4994.5084
819	39.875	4923.4852
820	39.875	4994.5084
821	39.8125	4994.5084
823	39.8125	4999.998
824	39.75	5038.551
825	39.75	5010.9968
826	39.6875	5033.032
827	39.6875	5038.551
828	39.625	4983.541
829	39.625	5038.551
830	39.5625	5055.136
831	39.5625	5055.136
832	39.5625	5071.7524
833	39.5	5060.669
834	39.5	5082.8556
835	39.4375	5066.2076
837	39.4375	5099.533
838	39.375	5093.9728
839	39.375	5049.605
840	39.3125	5133.01
841	39.3125	5088.4088
842	39.25	5161.013
843	39.25	5099.533
844	39.25	5060.669
845	39.1875	5099.533
846	39.1875	5206.0424
847	39.125	5121.8316
848	39.125	5200.4004
850	39.125	5177.8688
851	39.0625	5161.013
852	39.0625	5183.496
853	39.0	5172.2476
854	39.0	5127.418
855	38.9375	5222.995
856	38.9375	5234.3192
857	38.9375	5211.6904
858	38.875	5234.3192
859	38.875	5245.663
860	38.875	5228.6568
861	38.8125	5217.34
862	38.8125	5200.4004
863	38.8125	5257.0216
864	38.75	5211.6904
865	38.75	5279.7868
867	38.75	5217.34
868	38.6875	5274.09
869	38.625	5308.338
870	38.625	5257.0216
871	38.625	5279.7868
872	38.5625	5325.522
873	38.5625	5279.7868
874	38.5	5337.002
875	38.5	5383.079
876	38.5	5274.09
877	38.5	5383.079
878	38.4375	5314.0616
879	38.4375	5400.433
880	38.4375	5217.34
881	38.375	5314.0616
882	38.3125	5319.791
883	38.1875	5331.259
885	38.1875	5314.0616
886	38.125	5279.7868
887	38.125	5348.492
888	38.125	5354.249
889	38.125	5388.863
890	38.0625	5360.0064
891	38.0625	5302.62
892	38.0625	5274.09
893	38.0625	5308.338
894	38.0625	5371.5356
895	38.0625	5371.5356
896	38.0625	5365.7704
897	38.0625	5302.62
898	38.0625	5348.492
899	38.125	5371.5356
901	38.125	5337.002
902	38.1875	5308.338
903	38.25	5337.002
904	38.3125	5360.0064
905	38.375	5279.7868
906	38.4375	5354.249
907	38.5	5365.7704
908	38.5625	5331.259
909	38.625	5331.259
910	38.6875	5325.522
911	38.75	5354.249
912	38.875	5308.338
913	38.9375	5314.0616
914	39.0	5314.0616
915	39.0625	5325.522
916	39.125	5342.7468
918	39.1875	5228.6568
919	39.3125	5302.62
920	39.375	5234.3192
921	39.5	5251.339
922	39.625	5274.09
923	39.6875	5314.0616
924	39.75	5228.6568
925	39.8125	5279.7868
926	39.875	5268.3944
927	39.9375	5234.3192
928	40.0625	5217.34
929	40.125	5268.3944
930	40.1875	5234.3192
931	40.25	5149.799
932	40.375	5206.0424
933	40.4375	5217.34
935	40.5	5200.4004
936	40.5625	5177.8688
937	40.6875	5217.34
938	40.75	5200.4004
939	40.8125	5155.4052
940	40.875	5161.013
941	41.0	5144.1976
942	41.0625	5155.4052
943	41.125	5088.4088
944	41.1875	5127.418
945	41.25	5099.533
946	41.3125	5121.8316
947	41.375	5121.8316
948	41.4375	5093.9728
949	41.5	5099.533
951	41.5625	5055.136
952	41.625	5093.9728
953	41.75	5088.4088
954	41.8125	5099.533
955	41.875	5010.9968
956	41.9375	5066.2076
957	42.0	5005.4948
958	42.0625	5082.8556
959	42.0625	5049.605
960	42.125	5027.5156
961	42.1875	5055.136
962	42.25	5038.551
963	42.3125	5049.605
964	42.375	4994.5084
966	42.4375	4994.5084
967	42.5	5010.9968
968	42.5	4999.998
969	42.625	5010.9968
970	42.625	4923.4852
971	42.6875	4994.5084
972	42.75	5010.9968
973	42.8125	4972.584
974	42.875	4967.1144
975	42.875	5022.005
976	42.9375	4923.4852
977	43.0	4967.1144
978	43.0	4945.268
979	43.0625	4967.1144
980	43.0625	4978.0596
982	43.125	4961.6464
983	43.1875	4961.6464
984	43.25	4923.4852
985	43.3125	4989.019
986	43.3125	4907.191
987	43.375	4918.051
988	43.375	4912.618
989	43.4375	4934.3716
990	43.4375	4863.9164
991	43.5	4896.3508
992	43.5	4853.1344
993	43.5625	4896.3508
994	43.5625	4880.1132
995	43.625	4890.9364
997	43.6875	4901.77
998	43.75	4896.3508
999	43.75	4869.3096
1000	43.75	4810.1716
1001	43.8125	4890.9364
1002	43.8125	4869.3096
1003	43.8125	4831.619
1004	43.875	4863.9164
1005	43.875	4874.713
1006	43.9375	4836.9948
1007	43.9375	4890.9364
1008	44.0	4847.75
1009	44.0	4836.9948
1011	44.0	4831.619
1012	44.0625	4874.713
1013	44.0625	4858.5244
1014	44.125	4810.1716
1015	44.125	4778.1076
1016	44.125	4826.254
1017	44.125	4820.8852
1018	44.1875	4826.254
1019	44.1875	4751.4976
1020	44.1875	4836.9948
1021	44.25	4820.8852
1022	44.25	4820.8852
1023	44.25	4788.782
1025	44.25	4746.1856
1026	44.3125	4794.124
1027	44.3125	4799.4672
1028	44.3125	4783.442
1029	44.3125	4772.7792
1030	44.3125	4794.124
1031	44.375	4735.5736
1032	44.375	4772.7792
1033	44.375	4783.442
1034	44.4375	4772.7792
1035	44.4375	4788.782
1036	44.4375	4751.4976
1037	44.4375	4826.254
1039	44.4375	4767.452
1040	44.5	4778.1076
1041	44.5	4772.7792
1042	44.5	4794.124
1043	44.5	4740.879
1044	44.5	4762.131
1045	44.5	4746.1856
1046	44.5	4730.275
1047	44.5625	4778.1076
1048	44.5625	4778.1076
1049	44.5625	4719.69
1050	44.5625	4762.131
1051	44.5625	4751.4976
1053	44.5625	4762.131
1054	44.5625	4735.5736
1055	44.5625	4762.131
1056	44.5625	4724.982
1057	44.625	4730.275
1058	44.625	4730.275
1059	44.625	4762.131
1060	44.625	4682.751
1061	44.625	4783.442
1062	44.625	4709.115
1063	44.625	4751.4976
1064	44.625	4719.69
1065	44.625	4740.879
1067	44.625	4735.5736
1068	44.625	4730.275
1069	44.5625	4778.1076
1070	44.4375	4730.275
1071	44.4375	4772.7792
1072	44.375	4724.982
1073	44.375	4751.4976
1074	44.375	4751.4976
1075	44.375	4719.69
1076	44.4375	4783.442
1077	44.4375	4751.4976
1078	44.4375	4724.982
1079	44.4375	4698.56
1080	44.5	4709.115
1081	44.5	4703.837
1082	44.5	4735.5736
1084	44.5	4703.837
1085	44.5	4688.0196
1086	44.5625	4703.837
1087	44.5625	4698.56
1088	44.5625	4688.0196
1089	44.625	4640.7656
1090	44.625	4735.5736
1091	44.625	4666.9824
1092	44.6875	4666.9824
1093	44.6875	4682.751
1094	44.6875	4656.4816
1095	44.75	4614.6476
1096	44.75	4604.2248
1097	44.75	4599.02
1098	44.8125	4651.2396
1099	44.8125	4640.7656
1100	44.8125	4614.6476
1102	44.875	4640.7656
1103	44.875	4619.865
1104	44.875	4567.867
1105	44.9375	4640.7656
1106	44.9375	4619.865
1107	45.0	4593.817
1108	45.0	4609.4356
1109	45.0	4583.428
1110	45.0625	4614.6476
1111	45.0625	4547.17
1112	45.125	4599.02
1113	45.125	4583.428
1114	45.125	4557.511
1115	45.125	4567.867
1116	45.1875	4593.817
1117	45.1875	4583.428
1118	45.25	4604.2248
1120	45.25	4583.428
1121	45.25	4536.523
1122	45.3125	4541.683
1123	45.3125	4515.916
1124	45.3125	4541.683
1125	45.375	4536.523
1126	45.375	4521.061
1127	45.4375	4536.523
1128	45.4375	4541.683
1129	45.4375	4495.368
1130	45.4375	4526.212
1131	45.4375	4557.511
1132	45.5	4526.212
1133	45.5	4562.686
1134	45.5	4515.916
1136	45.5	4459.547
1137	45.5625	4526.212
1138	45.5625	4500.4984
1139	45.5625	4474.8756
1140	45.625	4526.212
1141	45.625	4459.547
1142	45.625	4474.8756
1143	45.625	4515.916
1144	45.625	4500.4984
1145	45.6875	4485.1124
1146	45.6875	4500.4984
1147	45.6875	4526.212
1148	45.6875	4474.8756
1149	45.6875	4500.4984
1151	45.75	4439.158
1152	45.75	4454.442
1153	45.75	4449.3432
1154	45.75	4526.212
1155	45.75	4515.916
1156	45.75	4495.368
1157	45.75	4515.916
1158	45.75	4526.212
1159	45.8125	4459.547
1160	45.8125	4459.547
1161	45.8125	4479.995
1162	45.8125	4464.6532
1163	45.8125	4485.1124
1164	45.8125	4500.4984
1165	45.8125	4459.547
1167	45.8125	4428.9844
1168	45.8125	4459.547
1169	45.875	4474.8756
1170	45.875	4485.1124
1171	45.875	4500.4984
1172	45.875	4378.3324
1173	45.875	4459.547
1174	45.875	4449.3432
1175	45.875	4454.442
1176	45.875	4439.158
1177	45.875	4418.8248
1178	45.875	4418.8248
1179	45.875	4454.442
1180	45.875	4378.3324
1182	45.875	4418.8248
1183	45.875	4449.3432
1184	45.875	4439.158
1185	45.875	4434.0684
1186	45.875	4434.0684
1187	45.875	4418.8248
1188	45.875	4485.1124
1189	45.875	4418.8248
1190	45.875	4434.0684
1191	45.875	4418.8248
1192	45.875	4459.547
1193	45.875	4393.4908
1194	45.875	4368.2436
1195	45.875	4413.75
1197	45.875	4444.25
1198	45.875	4413.75
1199	45.875	4423.9016
1200	45.875	4358.17
1201	45.875	4444.25
1202	45.875	4413.75
1203	45.875	4368.2436
1204	45.875	4403.613
1205	45.875	4408.6808
1206	45.875	4413.75
1207	45.875	4413.75
1208	45.875	4358.17
1209	45.875	4403.613
1210	45.875	4408.6808
1212	45.875	4428.9844
1213	45.875	4403.613
1214	45.875	4408.6808
1215	45.875	4398.551
1216	45.875	4434.0684
1217	45.875	4418.8248
1218	45.875	4393.4908
1219	45.8125	4449.3432
1220	45.8125	4353.1396
1221	45.8125	4418.8248
1222	45.8125	4418.8248
1223	45.8125	4439.158
1224	45.8125	4408.6808
1226	45.8125	4408.6808
1227	45.8125	4413.75
1228	45.8125	4413.75
1229	45.8125	4434.0684
1230	45.8125	4388.4364
1231	45.8125	4403.613
1232	45.8125	4449.3432
1233	45.8125	4378.3324
1234	45.8125	4449.3432
1235	45.8125	4393.4908
1236	45.8125	4403.613
1237	45.8125	4418.8248
1238	45.8125	4398.551
1240	45.75	4398.551
1241	45.75	4403.613
1242	45.75	4393.4908
1243	45.75	4398.551
1244	45.75	4398.551
1245	45.75	4388.4364
1246	45.75	4418.8248
1247	45.75	4408.6808
1248	45.75	4428.9844
1249	45.75	4388.4364
1250	45.75	4403.613
1251	45.6875	4408.6808
1252	45.75	4393.4908
1254	45.6875	4418.8248
1255	45.6875	4418.8248
1256	45.6875	4418.8248
1257	45.6875	4378.3324
1258	45.6875	4353.1396
1259	45.6875	4449.3432
1260	45.6875	4413.75
1261	45.6875	4338.067
1262	45.6875	4413.75
1263	45.625	4393.4908
1264	45.625	4418.8248
1265	45.625	4398.551
1267	45.625	4368.2436
1268	45.625	4403.613
1269	45.625	4358.17
1270	45.625	4373.2876
1271	45.625	4393.4908
1272	45.625	4403.613
1273	45.625	4408.6808
1274	45.5625	4398.551
1275	45.5625	4358.17
1276	45.5625	4338.067
1277	45.5625	4444.25
1278	45.5625	4398.551
1279	45.5625	4428.9844
1280	45.5625	4398.551
1281	45.5625	4449.3432
1282	45.5625	4418.8248
1283	45.5625	4413.75
1284	45.5	4434.0684
1286	45.5	4418.8248
1287	45.5	4434.0684
1288	45.5	4393.4908
1289	45.5	4413.75
1290	45.5	4403.613
1291	45.5	4393.4908
1292	45.5	4418.8248
1293	45.5	4393.4908
1294	45.5	4413.75
1295	45.4375	4368.2436
1296	45.5	4333.0512
1297	45.4375	4403.613
1298	45.4375	4449.3432
1299	45.4375	4459.547
1300	45.4375	4373.2876
1301	45.4375	4449.3432
1303	45.4375	4413.75
1304	45.4375	4428.9844
1305	45.4375	4378.3324
1306	45.375	4363.206
1307	45.375	4474.8756
1308	45.375	4434.0684
1309	45.375	4444.25
1310	45.375	4454.442
1311	45.375	4449.3432
1312	45.375	4474.8756
1313	45.375	4373.2876
1314	45.375	4449.3432
1315	45.375	4398.551
1316	45.3125	4383.384
1317	45.3125	4444.25
1318	45.3125	4408.6808
1320	45.3125	4383.384
1321	45.3125	4434.0684
1322	45.3125	4423.9016
1323	45.3125	4444.25
1324	45.3125	4485.1124
1325	45.3125	4434.0684
1326	45.3125	4418.8248
1327	45.3125	4449.3432
1328	45.25	4368.2436
1329	45.25	4418.8248
1330	45.25	4485.1124
1331	45.25	4439.158
1332	45.25	4418.8248
1333	45.25	4444.25
1334	45.25	4434.0684
1336	45.25	4434.0684
1337	45.25	4434.0684
1338	45.25	4459.547
1339	45.1875	4418.8248
1340	45.1875	4444.25
1341	45.1875	4454.442
1342	45.1875	4403.613
1343	45.1875	4434.0684
1344	45.1875	4428.9844
1345	45.1875	4449.3432
1346	45.1875	4444.25
1347	45.1875	4454.442
1348	45.1875	4418.8248
1349	45.125	4444.25
1350	45.125	4474.8756
1352	45.125	4454.442
1353	45.125	4439.158
1354	45.125	4444.25
1355	45.125	4444.25
1356	45.125	4434.0684
1357	45.125	4449.3432
1358	45.125	4459.547
1359	45.125	4439.158
1360	45.125	4444.25
1361	45.125	4444.25
1362	45.0625	4474.8756
1363	45.0625	4449.3432
1364	45.0625	4469.7616
1365	45.0625	4449.3432
1366	45.0625	4459.547
1368	45.0625	4479.995
1369	45.0625	4449.3432
1370	45.0625	4459.547
1371	45.0625	4479.995
1372	45.0625	4495.368
1373	45.0	4434.0684
1374	45.0	4449.3432
1375	45.0	4469.7616
1376	45.0	4454.442
1377	45.0	4449.3432
1378	45.0	4479.995
1379	45.0	4418.8248
1380	45.0	4469.7616
1381	45.0	4479.995
1382	45.0	4439.158
1384	45.0	4449.3432
1385	45.0	4418.8248
1386	44.9375	4500.4984
1387	44.9375	4434.0684
1388	44.9375	4474.8756
1389	44.9375	4464.6532
1390	44.9375	4490.2392
1391	44.9375	4469.7616
1392	44.9375	4479.995
1393	44.9375	4434.0684
1394	44.9375	4469.7616
1395	44.9375	4434.0684
1396	44.9375	4474.8756
1397	44.9375	4469.7616
1399	44.875	4459.547
1400	44.875	4495.368
1401	44.875	4474.8756
1402	44.875	4485.1124
1403	44.875	4515.916
1404	44.875	4474.8756
1405	44.875	4479.995
1406	44.875	4500.4984
1407	44.875	4474.8756
1408	44.875	4459.547
1409	44.8125	4500.4984
1410	44.8125	4515.916
1411	44.8125	4474.8756
1413	44.8125	4479.995
1414	44.8125	4536.523
1415	44.8125	4459.547
1416	44.8125	4500.4984
1417	44.8125	4495.368
1418	44.8125	4500.4984
1419	44.8125	4526.212
1420	44.8125	4485.1124
1421	44.8125	4531.3648
1422	44.8125	4500.4984
1423	44.8125	4500.4984
1424	44.75	4490.2392
1425	44.75	4521.061
1426	44.75	4531.3648
1428	44.75	4515.916
1429	44.75	4531.3648
1430	44.75	4479.995
1431	44.75	4526.212
1432	44.75	4495.368
1433	44.75	4474.8756
1434	44.75	4510.7724
1435	44.75	4449.3432
1436	44.75	4536.523
1437	44.6875	4531.3648
1438	44.6875	4531.3648
1439	44.6875	4526.212
1440	44.6875	4521.061
1442	44.6875	4567.867
1443	44.6875	4469.7616
1444	44.6875	4495.368
1445	44.625	4500.4984
1446	44.625	4547.17
1447	44.625	4541.683
1448	44.625	4541.683
1449	44.625	4531.3648
1450	44.625	4557.511
1451	44.625	4536.523
1452	44.625	4521.061
1453	44.625	4515.916
1454	44.625	4573.05
1456	44.625	4469.7616
1457	44.625	4531.3648
1458	44.625	4495.368
1459	44.625	4500.4984
1460	44.5625	4557.511
1461	44.5625	4500.4984
1462	44.5625	4541.683
1463	44.5625	4474.8756
1464	44.5625	4495.368
1465	44.5625	4541.683
1466	44.5625	4562.686
1467	44.5625	4541.683
1469	44.5625	4562.686
1470	44.5625	4541.683
1471	44.5625	4500.4984
1472	44.5625	4562.686
1473	44.5	4552.3376
1474	44.5	4593.817
1475	44.5	4583.428
1476	44.5	4536.523
1477	44.5	4495.368
1478	44.5	4583.428
1479	44.5	4552.3376
1480	44.5	4552.3376
1481	44.5	4547.17
1482	44.5	4500.4984
1483	44.5	4526.212
1484	44.5	4521.061
1486	44.5	4557.511
1487	44.5	4500.4984
1488	44.5	4562.686
1489	44.4375	4567.867
1490	44.4375	4547.17
1491	44.4375	4578.2384
1492	44.4375	4557.511
1493	44.4375	4573.05
1494	44.4375	4541.683
1495	44.4375	4531.3648
1496	44.4375	4567.867
1497	44.4375	4562.686
1498	44.4375	4578.2384
1499	44.4375	4578.2384
1500	44.4375	4573.05
1501	44.4375	4583.428
1502	44.4375	4521.061
1504	44.4375	4578.2384
1505	44.375	4614.6476
1506	44.375	4521.061
1507	44.375	4557.511
1508	44.375	4578.2384
1509	44.375	4557.511
1510	44.375	4583.428
1511	44.375	4583.428
1512	44.375	4604.2248
1513	44.375	4557.511
1514	44.375	4593.817
1515	44.3125	4552.3376
1516	44.3125	4630.3056
1517	44.3125	4609.4356
1518	44.3125	4635.537
1519	44.3125	4578.2384
1521	44.3125	4593.817
1522	44.3125	4583.428
1523	44.3125	4599.02
1524	44.3125	4593.817
1525	44.3125	4635.537
1526	44.3125	4599.02
1527	44.3125	4630.3056
1528	44.3125	4583.428
1529	44.3125	4567.867
1530	44.25	4609.4356
1531	44.25	4583.428
1532	44.25	4619.865
1533	44.25	4609.4356
1534	44.25	4604.2248
1535	44.25	4614.6476
1536	44.25	4619.865
1538	44.25	4583.428
1539	44.25	4619.865
1540	44.25	4609.4356
1541	44.1875	4557.511
1542	44.25	4609.4356
1543	44.1875	4562.686
1544	44.1875	4599.02
1545	44.1875	4604.2248
1546	44.1875	4635.537
1547	44.1875	4614.6476
1548	44.1875	4625.085
1549	44.1875	4604.2248
1550	44.1875	4604.2248
1551	44.1875	4599.02
1553	44.1875	4614.6476
1554	44.125	4640.7656
1555	44.125	4573.05
1556	44.125	4619.865
1557	44.125	4562.686
1558	44.125	4573.05
1559	44.125	4625.085
1560	44.125	4567.867
1561	44.125	4635.537
1562	44.125	4593.817
1563	44.125	4604.2248
1564	44.125	4583.428
1565	44.125	4630.3056
1566	44.125	4625.085
1567	44.0625	4619.865
1569	44.0625	4646.004
1570	44.0625	4635.537
1571	44.0625	4614.6476
1572	44.0625	4630.3056
1573	44.0625	4625.085
1574	44.0625	4619.865
1575	44.0625	4677.4936
1576	44.0625	4677.4936
1577	44.0625	4630.3056
1578	44.0	4661.729
1579	44.0	4583.428
1580	44.0	4625.085
1581	44.0	4635.537
1582	44.0	4640.7656
1584	44.0	4640.7656
1585	44.0	4666.9824
1586	44.0	4640.7656
1587	44.0	4640.7656
1588	44.0	4661.729
1589	44.0	4625.085
1590	43.9375	4646.004
1591	43.9375	4682.751
1592	43.9375	4666.9824
1593	43.9375	4666.9824
1594	43.9375	4698.56
1595	43.9375	4666.9824
1596	43.9375	4635.537
1597	43.9375	4688.0196
1599	43.9375	4666.9824
1600	43.9375	4651.2396
1601	43.9375	4666.9824
1602	43.875	4635.537
1603	43.875	4666.9824
1604	43.875	4656.4816
1605	43.875	4661.729
1606	43.875	4614.6476
1607	43.875	4666.9824
1608	43.875	4656.4816
1609	43.875	4693.289
1610	43.875	4656.4816
1611	43.8125	4682.751
1612	43.8125	4640.7656
1614	43.8125	4661.729
1615	43.8125	4709.115
1616	43.8125	4698.56
1617	43.8125	4666.9824
1618	43.8125	4693.289
1619	43.8125	4635.537
1620	43.8125	4688.0196
1621	43.8125	4709.115
1622	43.75	4709.115
1623	43.8125	4703.837
1624	43.75	4661.729
1625	43.75	4709.115
1626	43.75	4735.5736
1627	43.75	4709.115
1629	43.75	4688.0196
1630	43.75	4751.4976
1631	43.75	4703.837
1632	43.75	4646.004
1633	43.6875	4698.56
1634	43.6875	4698.56
1635	43.6875	4714.4
1636	43.6875	4703.837
1637	43.6875	4709.115
1638	43.6875	4740.879
1639	43.6875	4688.0196
1640	43.6875	4698.56
1641	43.6875	4709.115
1643	43.625	4666.9824
1644	43.625	4682.751
1645	43.625	4703.837
1646	43.625	4735.5736
1647	43.625	4698.56
1648	43.625	4703.837
1649	43.625	4703.837
1650	43.625	4751.4976
1651	43.625	4724.982
1652	43.625	4693.289
1653	43.5625	4740.879
1654	43.5625	4666.9824
1655	43.5625	4724.982
1657	43.5625	4703.837
1658	43.5625	4730.275
1659	43.5625	4719.69
1660	43.5625	4666.9824
1661	43.5625	4709.115
1662	43.5625	4751.4976
1663	43.5625	4735.5736
1664	43.5625	4746.1856
1665	43.5	4751.4976
1666	43.5	4751.4976
1667	43.5	4730.275
1668	43.5	4709.115
1669	43.5	4783.442
1671	43.5	4709.115
1672	43.5	4762.131
1673	43.5	4778.1076
1674	43.5	4767.452
1675	43.5	4682.751
1676	43.5	4730.275
1677	43.4375	4740.879
1678	43.4375	4751.4976
1679	43.4375	4762.131
1680	43.4375	4794.124
1681	43.4375	4746.1856
1682	43.4375	4751.4976
1683	43.4375	4740.879
1684	43.4375	4783.442
1685	43.4375	4810.1716
1687	43.4375	4772.7792
1688	43.4375	4767.452
1689	43.4375	4751.4976
1690	43.375	4772.7792
1691	43.375	4767.452
1692	43.375	4772.7792
1693	43.375	4698.56
1694	43.375	4751.4976
1695	43.375	4703.837
1696	43.375	4767.452
1697	43.375	4719.69
1698	43.375	4794.124
1699	43.3125	4730.275
1700	43.3125	4714.4
1701	43.3125	4783.442
1702	43.3125	4751.4976
1703	43.3125	4778.1076
1705	43.3125	4762.131
1706	43.3125	4767.452
1707	43.3125	4751.4976
1708	43.3125	4810.1716
1709	43.25	4794.124
1710	43.25	4762.131
1711	43.25	4778.1076
1712	43.25	4788.782
1713	43.25	4772.7792
1714	43.25	4783.442
1715	43.25	4751.4976
1716	43.25	4778.1076
1717	43.25	4767.452
1718	43.25	4810.1716
1719	43.25	4783.442
1721	43.25	4783.442
1722	43.25	4820.8852
1723	43.1875	4799.4672
1724	43.1875	4746.1856
1725	43.1875	4783.442
1726	43.1875	4788.782
1727	43.1875	4815.528
1728	43.1875	4751.4976
1729	43.1875	4815.528
1730	43.125	4735.5736
1731	43.125	4751.4976
1732	43.125	4815.528
1733	43.125	4746.1856
1734	43.125	4836.9948
1735	43.125	4794.124
1736	43.125	4836.9948
1738	43.125	4746.1856
1739	43.125	4799.4672
1740	43.125	4794.124
1741	43.125	4746.1856
1742	43.125	4847.75
1743	43.125	4746.1856
1744	43.0625	4826.254
1745	43.0625	4810.1716
1746	43.0625	4810.1716
1747	43.0625	4836.9948
1748	43.0625	4794.124
1749	43.0625	4863.9164
1750	43.0625	4820.8852
1751	43.0625	4836.9948
1752	43.0625	4836.9948
1754	43.0625	4778.1076
1755	43.0625	4820.8852
1756	43.0625	4826.254
1757	43.0	4847.75
1758	43.0	4836.9948
1759	43.0	4869.3096
1760	43.0	4815.528
1761	43.0	4836.9948
1762	43.0	4831.619
1763	43.0	4826.254
1764	43.0	4858.5244
1765	43.0	4847.75
1766	43.0	4863.9164
1767	43.0	4826.254
1768	42.9375	4815.528
1770	42.9375	4826.254
1771	42.9375	4863.9164
1772	42.9375	4858.5244
1773	42.9375	4751.4976
1774	42.9375	4869.3096
1775	42.9375	4788.782
1776	42.9375	4788.782
1777	42.9375	4874.713
1778	42.9375	4863.9164
1779	42.875	4853.1344
1780	42.875	4826.254
1781	42.875	4815.528
1782	42.875	4885.5244
1783	42.875	4885.5244
1784	42.875	4874.713
1786	42.875	4890.9364
1787	42.875	4874.713
1788	42.875	4858.5244
1789	42.875	4831.619
1790	42.8125	4912.618
1791	42.8125	4810.1716
